Timestamp,Flex1,Flex2,Flex3,Flex4,Flex5,AccelX,AccelY,AccelZ,GyroX,GyroY,GyroZ
2024-12-25 18:15:59,790,790,801,778,771,-2.76,0.52,10.23,-0.04,-0.05,-0.03
2024-12-25 18:15:59,789,786,793,776,770,-2.73,0.46,10.17,-0.06,0.02,-0.02
2024-12-25 18:15:59,791,781,792,774,771,-2.36,0.53,10.27,0.17,-0.24,-0.02
2024-12-25 18:15:59,786,776,789,769,769,-2.23,0.78,10.40,-0.11,-0.07,-0.04
2024-12-25 18:15:59,786,777,785,769,769,-2.33,0.74,10.29,0.02,-0.02,-0.05
2024-12-25 18:15:59,788,778,789,769,770,-2.13,0.61,10.26,0.03,0.00,-0.02
2024-12-25 18:15:59,787,778,789,769,768,-2.21,0.82,10.27,-0.04,-0.03,0.04
2024-12-25 18:15:59,788,781,789,769,769,-2.11,0.98,10.38,-0.04,0.01,0.00
2024-12-25 18:15:59,790,781,792,768,769,-2.08,0.89,10.23,-0.02,-0.03,0.01
2024-12-25 18:15:59,789,783,792,768,770,-1.89,0.95,10.37,-0.04,0.01,-0.01
2024-12-25 18:15:59,791,784,791,768,769,-1.96,0.89,10.32,-0.06,0.03,0.04
2024-12-25 18:15:59,791,784,794,769,770,-2.04,0.71,10.21,-0.03,0.03,0.02
2024-12-25 18:15:59,790,784,793,772,770,-1.81,0.84,10.40,0.01,-0.04,0.08
2024-12-25 18:15:59,790,785,794,772,770,-1.98,0.82,10.37,-0.08,0.07,-0.02
2024-12-25 18:15:59,789,785,796,774,770,-1.94,0.72,10.35,-0.06,0.05,0.00
2024-12-25 18:15:59,790,784,795,771,771,-2.04,0.75,10.31,-0.03,0.03,-0.01
2024-12-25 18:15:59,789,785,795,773,771,-2.01,0.75,10.30,-0.04,0.01,-0.02
2024-12-25 18:15:59,790,786,795,773,770,-2.07,0.76,10.35,-0.04,0.01,-0.02
2024-12-25 18:15:59,789,786,796,770,771,-2.10,0.74,10.37,-0.10,0.08,-0.04
2024-12-25 18:15:59,789,786,795,772,772,-2.18,0.53,10.26,-0.08,0.03,-0.06
2024-12-25 18:15:59,789,786,793,771,770,-2.15,0.54,10.30,-0.03,0.02,-0.01
2024-12-25 18:15:59,787,787,795,771,771,-2.18,0.51,10.26,-0.04,0.01,-0.01
2024-12-25 18:15:59,789,787,794,771,769,-2.20,0.51,10.27,-0.04,0.03,-0.02
2024-12-25 18:15:59,789,784,794,772,770,-2.13,0.54,10.33,-0.04,0.01,-0.01
2024-12-25 18:15:59,788,787,795,771,771,-2.15,0.55,10.28,-0.03,0.01,-0.01
2024-12-25 18:15:59,789,785,794,772,770,-2.15,0.52,10.31,-0.04,0.02,-0.01
2024-12-25 18:15:59,788,786,794,772,771,-2.15,0.55,10.33,-0.05,0.02,-0.01
2024-12-25 18:16:00,788,787,795,772,773,-2.16,0.56,10.24,-0.04,0.01,-0.01
2024-12-25 18:16:00,787,785,795,770,770,-2.16,0.59,10.41,-0.05,0.00,-0.01
2024-12-25 18:16:00,789,784,795,771,770,-2.07,0.66,10.35,-0.05,0.02,-0.01
2024-12-25 18:16:00,789,786,795,771,771,-2.12,0.58,10.28,-0.06,0.05,-0.02
2024-12-25 18:16:00,789,784,794,771,772,-1.99,0.54,10.27,-0.06,0.03,-0.04
2024-12-25 18:16:00,789,786,796,773,770,-2.01,0.46,10.31,-0.08,0.04,-0.04
2024-12-25 18:16:00,790,788,794,771,771,-2.26,0.29,10.20,-0.08,0.08,-0.04
2024-12-25 18:16:00,790,787,795,772,771,-2.21,0.31,10.22,-0.00,-0.01,-0.01
2024-12-25 18:16:00,789,786,797,771,770,-2.23,0.34,10.27,-0.03,0.03,-0.03
2024-12-25 18:16:00,790,786,796,771,770,-2.15,0.36,10.31,-0.02,-0.01,0.01
2024-12-25 18:16:00,790,786,796,770,771,-2.21,0.36,10.26,-0.04,0.02,0.00
2024-12-25 18:16:00,789,785,797,772,769,-2.14,0.42,10.33,-0.03,0.04,-0.01
2024-12-25 18:16:00,790,786,796,770,770,-2.21,0.49,10.34,-0.03,0.04,-0.00
2024-12-25 18:16:00,791,785,797,771,770,-2.19,0.50,10.32,-0.08,0.07,-0.02
2024-12-25 18:16:00,791,787,796,772,771,-2.15,0.33,10.28,-0.29,0.07,-0.11
2024-12-25 18:16:00,791,790,808,776,772,-3.02,-0.10,9.96,-0.31,-0.06,-0.16
2024-12-25 18:16:00,793,789,795,775,770,-2.52,-1.16,9.88,-0.23,0.11,-0.03
2024-12-25 18:16:00,794,784,790,772,769,-2.69,-0.81,10.39,-0.09,0.09,-0.07
2024-12-25 18:16:00,793,783,786,771,773,-2.78,-1.47,9.95,-0.33,0.05,-0.16
2024-12-25 18:16:00,794,781,785,771,781,-2.52,-1.50,9.98,0.26,-0.02,-0.02
2024-12-25 18:16:00,791,778,785,767,777,-2.20,-0.89,10.31,0.44,0.03,0.25
2024-12-25 18:16:00,790,782,791,768,770,-2.50,0.03,11.13,-0.51,-0.38,-0.15
2024-12-25 18:16:00,791,789,809,776,770,-2.22,-1.24,9.81,-0.01,-0.03,0.04
2024-12-25 18:16:00,790,781,791,766,773,-3.35,-0.54,10.10,0.18,0.04,0.30
2024-12-25 18:16:00,792,778,788,767,774,-2.46,-0.43,10.38,-0.12,-0.04,0.17
2024-12-25 18:16:00,787,806,836,787,772,-2.24,0.19,11.14,-0.38,-0.27,-0.12
2024-12-25 18:16:00,787,787,795,771,772,-2.99,-0.53,9.92,0.11,0.64,0.12
2024-12-25 18:16:00,788,788,802,774,770,-2.57,-0.93,10.39,-1.10,-0.20,-0.07
2024-12-25 18:16:00,786,853,886,806,772,-2.17,-2.69,9.81,-0.42,-0.02,0.04
2024-12-25 18:16:00,786,817,848,785,772,-2.23,-1.87,10.17,1.08,0.38,-0.03
2024-12-25 18:16:01,783,787,801,772,772,-2.37,-1.65,10.18,-0.56,0.01,0.00
2024-12-25 18:16:01,784,813,849,790,773,-2.40,-2.22,10.45,-0.28,-0.11,-0.17
2024-12-25 18:16:01,786,810,843,793,775,-2.07,-2.56,10.56,-0.22,-0.19,-0.13
2024-12-25 18:16:01,787,809,837,792,774,-2.03,-3.68,10.71,-0.54,0.06,-0.24
2024-12-25 18:16:01,788,804,827,790,774,-1.90,-4.59,8.64,-0.81,0.38,0.19
2024-12-25 18:16:01,789,797,806,781,772,-2.22,-3.93,8.24,0.96,0.34,-0.01
2024-12-25 18:16:02,788,789,793,777,771,-3.05,-3.87,9.89,-0.23,-0.08,-0.01
2024-12-25 18:16:02,788,788,798,777,770,-3.32,-4.75,8.56,-0.72,-0.17,-0.13
2024-12-25 18:16:02,791,790,804,778,772,-3.31,-4.92,8.70,-0.16,-0.15,-0.19
2024-12-25 18:16:02,787,790,799,853,780,-2.98,-5.94,9.67,-0.11,-0.40,-0.06
2024-12-25 18:16:02,778,782,794,875,793,-2.58,-4.80,8.81,0.07,0.14,0.17
2024-12-25 18:16:03,774,782,793,874,784,-3.53,-5.40,7.41,-1.58,-0.26,0.11
2024-12-25 18:16:03,778,781,796,869,781,-3.25,-6.79,6.09,-0.76,-0.20,0.14
2024-12-25 18:16:03,775,781,795,879,790,-3.78,-7.75,5.75,-0.02,1.09,-0.03
2024-12-25 18:16:03,770,779,791,877,784,-4.32,-7.76,5.45,0.51,1.10,-0.23
2024-12-25 18:16:03,766,775,787,877,784,-5.12,-7.15,5.41,-0.01,0.34,-0.00
2024-12-25 18:16:04,768,775,791,880,784,-4.36,-6.92,5.29,0.05,0.01,-0.15
2024-12-25 18:16:04,769,774,789,876,783,-4.38,-7.19,5.52,-0.10,0.07,-0.07
2024-12-25 18:16:04,767,775,789,875,785,-4.77,-7.36,5.28,-0.06,-0.02,0.00
2024-12-25 18:16:04,770,774,789,876,784,-4.62,-7.22,5.37,-0.11,0.07,0.04
2024-12-25 18:16:04,769,775,788,876,784,-4.75,-7.17,5.20,-0.06,0.01,0.02
2024-12-25 18:16:04,771,774,787,876,783,-4.72,-7.12,5.26,0.03,-0.05,-0.02
2024-12-25 18:16:05,769,776,789,877,786,-4.75,-7.13,5.66,-0.07,0.06,-0.02
2024-12-25 18:16:05,771,774,787,874,784,-4.48,-7.15,5.41,-0.05,-0.06,-0.06
2024-12-25 18:16:05,771,776,790,876,785,-4.53,-7.25,5.50,-0.03,0.03,-0.00
2024-12-25 18:16:05,771,775,789,876,785,-4.44,-7.03,5.65,0.02,-0.02,-0.02
2024-12-25 18:16:05,771,775,789,875,785,-4.64,-7.21,5.72,-0.07,0.02,-0.03
2024-12-25 18:16:06,770,777,789,876,784,-4.41,-7.16,5.62,-0.05,-0.01,0.00
2024-12-25 18:16:06,771,776,787,874,784,-4.48,-7.13,5.59,-0.06,0.03,-0.03
2024-12-25 18:16:06,773,778,789,875,785,-4.45,-7.21,5.61,-0.03,-0.03,-0.14
2024-12-25 18:16:06,772,777,789,874,785,-4.29,-7.27,5.80,0.06,0.03,-0.10
2024-12-25 18:16:06,772,775,789,875,785,-3.79,-7.61,5.29,0.02,0.07,-0.04
2024-12-25 18:16:07,770,776,790,876,785,-3.48,-7.14,5.83,0.15,-0.08,0.01
2024-12-25 18:16:07,771,776,789,873,783,-4.30,-6.95,6.57,0.00,-0.06,0.07
2024-12-25 18:16:07,770,775,790,875,783,-4.37,-7.38,6.21,-0.18,0.15,-0.02
2024-12-25 18:16:07,771,774,791,876,784,-3.75,-6.98,6.01,-0.26,-0.06,-0.28
2024-12-25 18:16:07,774,775,788,873,785,-3.44,-7.69,5.31,-0.13,-0.08,-0.12
2024-12-25 18:16:07,774,775,788,874,786,-3.29,-7.72,5.66,0.12,-0.06,-0.00
2024-12-25 18:16:08,773,774,786,873,784,-3.37,-7.56,6.18,0.02,-0.03,0.02
2024-12-25 18:16:08,773,773,788,872,785,-3.29,-7.43,6.08,-0.00,-0.05,0.01
2024-12-25 18:16:08,774,773,789,873,784,-3.58,-7.56,6.19,0.03,0.05,0.08
2024-12-25 18:16:08,775,774,787,872,785,-3.26,-7.40,6.39,-0.01,0.04,-0.02
2024-12-25 18:16:08,776,775,791,874,785,-3.45,-7.04,6.15,-0.06,-0.01,-0.02
2024-12-25 18:16:09,776,776,788,874,784,-3.52,-6.81,7.16,0.22,-0.08,-0.08
2024-12-25 18:16:09,773,775,787,872,785,-2.58,-7.55,6.25,0.11,0.04,0.28
2024-12-25 18:16:09,775,776,789,872,785,-3.42,-7.09,7.34,-0.10,-0.06,-0.04
2024-12-25 18:16:09,774,774,789,872,784,-3.67,-7.04,6.49,-0.34,0.12,-0.07
2024-12-25 18:16:09,777,776,789,873,784,-3.12,-6.98,6.07,-0.19,0.06,-0.24
2024-12-25 18:16:10,777,774,788,873,785,-3.04,-7.39,6.16,0.18,0.08,0.02
2024-12-25 18:16:10,777,775,788,870,783,-3.12,-7.19,7.25,0.22,0.11,-0.09
2024-12-25 18:16:10,776,775,789,873,783,-3.05,-7.22,6.94,-0.21,-0.00,-0.06
2024-12-25 18:16:10,779,775,791,873,784,-3.30,-7.75,6.04,-0.21,0.27,-0.18
2024-12-25 18:16:10,777,773,790,872,783,-2.71,-7.92,5.81,-0.14,0.26,0.05
2024-12-25 18:16:10,777,774,790,873,784,-2.53,-7.82,5.39,-0.17,-0.01,-0.17
2024-12-25 18:16:11,778,775,788,871,783,-2.89,-7.86,6.09,0.15,0.12,-0.04
2024-12-25 18:16:11,777,775,789,872,783,-3.02,-8.00,5.44,-0.00,0.09,-0.04
2024-12-25 18:16:11,778,775,789,872,785,-2.90,-7.76,5.81,0.10,0.11,-0.01
2024-12-25 18:16:11,779,774,788,871,782,-2.91,-7.83,5.57,0.06,0.15,-0.09
2024-12-25 18:16:11,776,776,790,872,782,-2.83,-7.80,6.46,0.09,0.03,-0.01
2024-12-25 18:16:12,780,776,791,873,784,-2.96,-7.65,6.20,0.11,-0.07,-0.08
2024-12-25 18:16:12,774,776,789,871,784,-2.81,-7.56,6.41,0.26,0.05,-0.15
2024-12-25 18:16:12,777,774,790,872,784,-2.43,-7.43,6.57,0.05,0.06,-0.02
2024-12-25 18:16:12,778,776,790,871,785,-2.73,-7.32,6.60,-0.02,0.00,0.02
2024-12-25 18:16:12,780,776,790,871,783,-2.66,-7.18,7.15,0.03,-0.02,0.02
2024-12-25 18:16:13,777,777,789,872,785,-2.62,-7.00,7.05,0.03,-0.02,-0.04
2024-12-25 18:16:13,778,777,793,872,783,-2.42,-7.27,6.98,0.03,-0.01,-0.01
2024-12-25 18:16:13,777,777,789,872,783,-2.39,-7.11,7.14,-0.11,-0.09,0.01
2024-12-25 18:16:13,777,778,789,871,783,-1.95,-7.03,6.70,0.03,-0.14,-0.06
2024-12-25 18:16:13,777,777,790,870,783,-2.43,-7.14,7.92,-0.04,0.12,0.04
2024-12-25 18:16:13,773,774,790,869,781,-1.70,-6.95,6.84,-0.13,0.07,0.04
2024-12-25 18:16:14,777,776,790,869,782,-2.56,-6.93,7.34,-0.16,-0.07,-0.11
2024-12-25 18:16:14,777,775,788,868,781,-2.21,-7.38,6.45,-0.03,-0.08,0.04
2024-12-25 18:16:14,775,776,790,866,782,-2.56,-7.15,7.55,0.07,0.10,0.01
2024-12-25 18:16:14,776,776,790,867,782,-2.01,-7.25,7.05,-0.06,0.07,-0.03
2024-12-25 18:16:14,778,777,789,869,782,-2.16,-7.08,6.84,-0.09,0.01,-0.01
2024-12-25 18:16:15,778,776,789,868,781,-2.37,-7.03,7.30,0.04,-0.01,-0.00
2024-12-25 18:16:15,778,778,789,868,782,-2.51,-7.16,7.23,-0.21,0.01,0.02
2024-12-25 18:16:15,778,777,789,866,782,-2.22,-7.13,7.18,-0.05,0.01,0.02
2024-12-25 18:16:15,778,778,788,866,781,-2.26,-7.19,6.86,0.03,-0.01,-0.02
2024-12-25 18:16:15,777,778,793,869,784,-2.34,-7.36,7.11,-0.06,0.04,-0.01
2024-12-25 18:16:16,778,778,792,867,782,-2.22,-7.17,7.15,-0.01,0.09,-0.05
2024-12-25 18:16:16,778,779,790,867,782,-2.18,-7.35,6.92,-0.03,0.08,0.01
2024-12-25 18:16:16,775,777,790,867,782,-2.03,-7.13,6.99,-0.05,-0.01,0.10
2024-12-25 18:16:16,779,777,792,866,780,-2.26,-6.81,7.03,0.02,-0.08,0.08
2024-12-25 18:16:16,777,777,790,866,780,-2.55,-7.00,7.14,-0.01,0.02,0.32
2024-12-25 18:16:16,779,779,789,867,780,-3.17,-6.85,7.40,0.02,-0.03,0.33
2024-12-25 18:16:17,777,777,790,867,779,-3.50,-6.77,7.25,-0.09,0.00,0.11
2024-12-25 18:16:17,778,776,789,868,781,-3.09,-6.76,7.10,-0.10,0.05,0.03
2024-12-25 18:16:17,779,776,791,868,781,-2.90,-6.49,6.85,-0.06,0.01,-0.00
2024-12-25 18:16:17,778,777,790,869,782,-3.84,-6.33,7.44,0.00,-0.16,-0.06
2024-12-25 18:16:17,778,777,790,867,781,-3.29,-6.74,7.02,0.05,0.05,-0.05
2024-12-25 18:16:18,779,776,788,867,780,-2.58,-6.62,7.26,0.03,-0.07,-0.13
2024-12-25 18:16:18,779,776,789,867,781,-2.92,-6.47,7.60,0.05,-0.04,0.01
2024-12-25 18:16:18,777,779,789,868,782,-2.99,-6.46,7.69,0.03,0.04,-0.02
2024-12-25 18:16:18,778,779,791,868,780,-2.86,-6.69,7.89,-0.15,0.13,-0.02
2024-12-25 18:16:18,778,776,790,867,782,-2.61,-6.49,7.09,-0.13,-0.05,-0.17
2024-12-25 18:16:18,776,777,789,868,782,-2.99,-6.71,7.60,-0.38,0.10,0.01
2024-12-25 18:16:19,778,772,787,869,781,-2.37,-7.05,6.68,-0.48,0.02,-0.30
2024-12-25 18:16:19,779,769,787,870,782,-2.81,-7.60,6.73,-0.11,0.00,-0.20
2024-12-25 18:16:19,779,768,786,867,781,-1.81,-7.48,6.38,-0.04,0.24,-0.07
2024-12-25 18:16:19,780,770,787,865,781,-1.84,-7.43,6.77,0.19,0.03,-0.13
2024-12-25 18:16:19,779,772,789,866,781,-2.18,-7.75,7.04,0.01,-0.14,-0.05
2024-12-25 18:16:20,777,771,787,864,781,-2.29,-7.25,7.06,-0.10,0.03,-0.11
2024-12-25 18:16:20,777,771,787,866,782,-1.17,-7.10,6.45,0.20,0.01,-0.17
2024-12-25 18:16:20,776,772,790,868,783,-1.12,-7.11,8.35,0.04,-0.02,-0.00
2024-12-25 18:16:20,776,773,788,864,782,-1.66,-7.38,6.69,-0.12,-0.05,-0.01
2024-12-25 18:16:20,776,773,793,869,784,-1.46,-6.88,7.37,-0.02,0.11,0.04
2024-12-25 18:16:21,773,774,790,867,783,-1.84,-7.03,8.48,0.16,0.03,0.03
2024-12-25 18:16:21,774,772,790,869,784,-1.86,-6.99,7.11,-0.15,-0.03,-0.10
2024-12-25 18:16:21,775,774,792,869,784,-1.45,-6.71,8.37,0.21,0.04,0.09
2024-12-25 18:16:21,775,774,791,868,785,-1.77,-6.75,6.94,-0.08,-0.06,0.25
2024-12-25 18:16:21,775,773,790,868,783,-1.89,-6.83,7.72,0.07,0.04,-0.04
2024-12-25 18:16:21,776,773,791,869,784,-2.09,-6.68,8.04,-0.08,0.09,0.10
2024-12-25 18:16:22,774,773,791,869,785,-1.97,-6.56,7.67,-0.01,0.05,-0.02
2024-12-25 18:16:22,776,773,790,866,784,-1.88,-6.39,7.84,-0.05,0.02,0.01
2024-12-25 18:16:22,777,773,793,869,785,-2.44,-6.55,8.01,0.17,0.05,-0.06
2024-12-25 18:16:22,776,775,791,869,784,-2.12,-6.43,8.43,-0.08,0.13,-0.13
2024-12-25 18:16:22,775,775,792,865,784,-2.50,-6.88,7.87,-0.68,0.20,-0.19
2024-12-25 18:16:23,778,775,791,868,782,-1.58,-7.07,7.47,-0.47,0.35,-0.01
2024-12-25 18:16:23,776,773,787,864,781,-2.46,-7.51,5.72,-0.32,0.11,0.09
2024-12-25 18:16:23,775,773,786,862,781,-2.41,-7.64,6.22,-0.04,0.04,-0.04
2024-12-25 18:16:23,777,771,786,863,780,-2.93,-8.04,6.14,-0.03,0.16,0.07
2024-12-25 18:16:23,775,770,785,861,778,-2.39,-7.63,5.40,-0.09,0.05,-0.19
2024-12-25 18:16:24,775,770,786,862,779,-2.59,-8.00,6.02,0.09,-0.02,-0.06
2024-12-25 18:16:24,775,772,787,862,780,-2.42,-7.79,6.14,0.07,-0.06,-0.03
2024-12-25 18:16:24,776,771,787,861,780,-2.36,-7.88,6.38,0.11,0.05,0.14
2024-12-25 18:16:24,776,771,788,862,780,-2.70,-7.52,6.32,0.00,-0.04,-0.01
2024-12-25 18:16:24,776,771,788,863,778,-2.40,-7.40,6.70,0.09,0.03,0.00
2024-12-25 18:16:24,774,772,787,860,779,-2.70,-7.45,6.69,0.01,-0.03,0.04
2024-12-25 18:16:25,774,773,790,860,779,-2.57,-7.17,7.13,0.00,0.05,-0.12
2024-12-25 18:16:25,777,772,790,862,780,-2.34,-7.48,6.52,0.04,0.01,-0.05
2024-12-25 18:16:25,775,771,790,862,780,-2.27,-7.09,7.15,-0.00,0.01,-0.02
2024-12-25 18:16:25,775,771,789,864,779,-2.34,-7.43,6.89,0.04,-0.07,-0.04
2024-12-25 18:16:25,778,773,791,863,780,-2.14,-7.20,6.96,0.08,-0.00,-0.00
2024-12-25 18:16:26,774,772,789,861,778,-2.90,-6.85,7.34,-0.11,0.02,-0.06
2024-12-25 18:16:26,776,773,789,863,780,-2.20,-6.90,7.25,-0.08,-0.07,0.04
2024-12-25 18:16:26,775,773,790,862,780,-2.43,-7.02,7.60,0.15,-0.02,0.20
2024-12-25 18:16:26,778,772,789,860,780,-2.32,-6.59,7.20,0.04,-0.08,-0.16
2024-12-25 18:16:26,777,774,788,864,781,-2.77,-6.94,7.59,-0.15,-0.09,-0.08
2024-12-25 18:16:27,776,772,789,862,779,-2.00,-6.62,7.58,-0.08,0.01,-0.06
2024-12-25 18:16:27,778,773,788,862,781,-1.60,-7.00,7.66,0.02,0.05,-0.05
2024-12-25 18:16:27,775,773,790,862,780,-1.80,-6.73,7.55,-0.01,-0.03,-0.02
2024-12-25 18:16:27,778,773,788,862,780,-1.97,-6.86,7.74,0.04,0.01,-0.01
2024-12-25 18:16:27,778,773,790,864,781,-1.58,-7.01,7.63,-0.07,0.09,0.01
2024-12-25 18:16:27,777,772,789,862,780,-2.32,-6.94,7.81,-0.41,0.18,0.02
2024-12-25 18:16:28,778,773,786,864,779,-2.28,-7.25,6.65,-0.48,0.11,-0.21
2024-12-25 18:16:28,776,772,786,864,780,-1.74,-8.34,6.07,-0.43,0.19,-0.22
2024-12-25 18:16:28,778,770,784,861,779,-1.92,-8.61,4.87,-0.39,0.18,-0.14
2024-12-25 18:16:28,776,770,784,863,780,-1.84,-8.30,5.09,-0.03,0.17,0.01
2024-12-25 18:16:28,775,773,785,861,780,-2.26,-8.37,5.20,0.03,-0.02,0.06
2024-12-25 18:16:29,776,771,784,863,779,-2.48,-8.42,5.02,0.09,0.04,0.18
2024-12-25 18:16:29,775,771,786,861,780,-2.71,-8.66,5.66,0.01,-0.16,0.23
2024-12-25 18:16:29,778,770,786,861,780,-2.86,-8.12,5.94,0.01,-0.02,0.03
2024-12-25 18:16:29,775,770,784,860,780,-2.77,-8.09,5.78,-0.08,0.04,-0.12
2024-12-25 18:16:29,776,771,785,862,779,-2.48,-8.11,5.98,-0.07,0.10,-0.16
2024-12-25 18:16:30,775,770,787,861,779,-1.34,-8.08,5.23,-0.17,0.05,-0.11
2024-12-25 18:16:30,775,772,784,861,779,-2.11,-8.42,5.52,0.03,0.02,0.01
2024-12-25 18:16:30,775,770,786,860,780,-2.51,-8.19,5.95,-0.05,0.01,-0.02
2024-12-25 18:16:30,774,771,788,861,778,-1.67,-8.34,5.64,0.02,0.08,-0.02
2024-12-25 18:16:30,774,769,782,860,779,-2.05,-8.43,5.13,-0.21,-0.00,-0.05
2024-12-25 18:16:30,778,771,785,863,780,-2.09,-8.15,5.94,-0.03,0.00,0.00
2024-12-25 18:16:31,776,770,787,864,782,-1.87,-8.18,5.61,-0.08,0.02,-0.01
2024-12-25 18:16:31,777,770,786,870,786,-2.30,-8.16,6.05,-0.07,-0.05,-0.07
2024-12-25 18:16:31,778,772,789,876,792,-1.94,-8.30,5.23,-0.64,-0.23,0.02
2024-12-25 18:16:31,781,771,789,877,792,-1.92,-9.05,4.70,-0.71,-0.08,0.14
2024-12-25 18:16:31,783,774,792,882,799,-2.13,-9.33,3.91,-0.13,0.14,0.07
2024-12-25 18:16:32,783,772,789,879,798,-2.41,-8.82,3.43,0.11,0.25,-0.09
2024-12-25 18:16:32,783,771,786,878,797,-1.97,-9.20,3.82,0.05,0.06,-0.10
2024-12-25 18:16:32,781,773,788,879,796,-2.06,-9.27,3.36,-0.03,-0.02,-0.01
2024-12-25 18:16:32,780,773,787,875,795,-1.93,-9.11,3.57,0.12,0.05,-0.05
2024-12-25 18:16:32,781,773,789,873,793,-1.92,-9.17,4.06,0.12,0.04,-0.06
2024-12-25 18:16:32,781,775,790,875,793,-1.83,-9.07,4.10,0.03,0.04,-0.06
2024-12-25 18:16:33,780,772,788,873,792,-1.73,-9.14,4.36,0.01,0.03,-0.03
2024-12-25 18:16:33,781,771,789,874,791,-1.65,-8.94,4.03,-0.11,-0.01,-0.04
2024-12-25 18:16:33,782,773,789,873,793,-1.64,-9.12,4.04,0.04,-0.01,-0.09
2024-12-25 18:16:33,781,772,790,873,793,-1.49,-8.99,4.18,-0.04,0.06,0.01
2024-12-25 18:16:33,779,772,791,873,793,-1.55,-9.01,4.37,0.04,-0.02,-0.03
2024-12-25 18:16:34,780,773,790,875,794,-1.72,-9.11,4.64,0.01,0.04,0.01
2024-12-25 18:16:34,780,772,790,871,792,-1.51,-9.06,4.36,-0.05,0.04,0.04
2024-12-25 18:16:34,780,772,789,875,792,-1.85,-8.84,4.43,0.02,-0.01,0.02
2024-12-25 18:16:34,782,772,791,874,791,-1.83,-9.01,4.66,-0.03,0.04,0.03
2024-12-25 18:16:34,779,772,790,872,791,-1.67,-8.89,4.88,-0.01,0.01,-0.08
2024-12-25 18:16:35,780,773,789,873,792,-1.78,-8.90,4.52,-0.08,0.06,-0.05
2024-12-25 18:16:35,779,773,789,871,791,-1.60,-8.87,4.50,-0.02,0.04,-0.05
2024-12-25 18:16:35,779,773,786,873,789,-1.66,-8.93,4.78,-0.02,0.04,-0.05
2024-12-25 18:16:35,781,772,787,873,791,-1.55,-8.90,4.65,-0.02,0.02,-0.02
2024-12-25 18:16:35,778,772,785,873,790,-1.62,-8.94,4.66,-0.00,-0.01,-0.06
2024-12-25 18:16:35,780,774,788,873,792,-1.66,-8.86,4.71,0.04,0.03,-0.03
2024-12-25 18:16:36,781,773,788,873,792,-1.55,-8.82,5.00,0.04,-0.00,0.03
2024-12-25 18:16:36,778,773,790,873,791,-1.46,-8.73,4.80,-0.02,0.02,0.00
2024-12-25 18:16:36,779,773,788,873,791,-1.42,-8.82,5.00,0.02,0.03,-0.03
2024-12-25 18:16:36,779,775,788,873,791,-1.60,-8.86,5.00,-0.02,0.02,-0.03
2024-12-25 18:16:36,779,772,789,871,791,-1.65,-8.62,5.11,-0.08,-0.01,-0.01
2024-12-25 18:16:37,779,774,789,872,791,-1.38,-8.68,5.20,0.01,0.00,-0.00
2024-12-25 18:16:37,779,772,789,871,790,-1.50,-8.79,5.19,-0.08,0.00,0.01
2024-12-25 18:16:37,777,772,787,870,791,-1.35,-8.54,4.93,-0.01,-0.02,-0.03
2024-12-25 18:16:37,777,772,788,873,791,-1.66,-9.03,5.62,-0.16,0.14,-0.00
2024-12-25 18:16:37,779,771,788,871,790,-1.27,-8.55,4.53,-0.21,0.01,-0.12
2024-12-25 18:16:38,781,773,791,874,790,-1.21,-8.93,4.70,0.16,0.06,-0.03
2024-12-25 18:16:38,780,773,788,872,791,-1.31,-8.94,5.12,-0.05,-0.03,-0.02
2024-12-25 18:16:38,782,773,789,873,790,-1.35,-8.96,4.80,-0.00,0.04,-0.03
2024-12-25 18:16:38,778,773,785,871,791,-1.14,-8.70,5.00,-0.01,0.04,-0.06
2024-12-25 18:16:38,781,772,787,872,790,-1.26,-9.03,5.05,0.03,0.01,0.03
2024-12-25 18:16:38,780,772,788,871,791,-1.18,-8.62,5.17,-0.08,-0.01,-0.03
2024-12-25 18:16:39,779,772,789,870,790,-1.14,-8.72,5.11,0.04,0.02,-0.03
2024-12-25 18:16:39,780,773,788,870,792,-1.19,-9.10,5.37,-0.14,0.11,-0.06
2024-12-25 18:16:39,779,772,786,873,792,-1.24,-8.73,4.96,-0.21,0.09,-0.09
2024-12-25 18:16:39,780,771,789,871,793,-0.91,-8.66,4.61,-0.00,0.02,0.02
2024-12-25 18:16:39,781,774,788,871,792,-1.00,-9.19,5.11,0.12,0.00,-0.05
2024-12-25 18:16:40,778,771,790,871,790,-1.22,-8.73,4.90,-0.11,0.05,-0.00
2024-12-25 18:16:40,780,773,788,872,792,-0.92,-8.75,5.22,0.12,0.04,0.04
2024-12-25 18:16:40,781,773,789,872,792,-1.41,-8.80,5.47,-0.04,-0.01,-0.01
2024-12-25 18:16:40,778,772,788,872,791,-1.12,-8.60,5.15,0.00,0.09,-0.03
2024-12-25 18:16:40,778,773,790,870,790,-1.13,-8.94,4.99,-0.01,-0.01,-0.06
2024-12-25 18:16:41,781,772,793,872,791,-1.19,-8.89,5.31,-0.06,0.02,-0.01
2024-12-25 18:16:41,780,772,790,870,791,-1.06,-8.52,4.91,0.02,-0.00,-0.02
2024-12-25 18:16:41,779,773,788,873,791,-1.01,-8.82,5.45,0.05,0.01,-0.05
2024-12-25 18:16:41,780,772,789,871,790,-1.07,-8.48,5.41,-0.02,-0.01,-0.06
2024-12-25 18:16:41,780,772,789,871,792,-0.80,-8.80,5.60,-0.07,0.05,-0.09
2024-12-25 18:16:41,779,772,788,873,793,-1.24,-9.05,5.41,-0.16,0.14,0.01
2024-12-25 18:16:42,778,772,787,871,791,-1.22,-8.82,4.85,-0.37,0.20,-0.05
2024-12-25 18:16:42,779,774,789,871,793,-0.59,-8.94,3.90,0.07,0.04,-0.06
2024-12-25 18:16:42,781,774,788,872,793,-0.76,-8.88,4.83,-0.12,-0.10,-0.04
2024-12-25 18:16:42,778,772,790,870,791,-1.02,-8.83,4.88,0.09,-0.16,-0.02
2024-12-25 18:16:42,780,771,787,872,791,-1.00,-9.15,5.33,0.07,0.15,0.06
2024-12-25 18:16:43,779,772,789,871,791,-0.45,-8.40,5.47,0.14,-0.09,0.05
2024-12-25 18:16:43,780,771,791,871,790,-0.85,-8.89,5.79,-0.07,0.02,-0.06
2024-12-25 18:16:43,780,772,788,873,790,-0.74,-8.70,5.40,-0.16,0.06,-0.01
2024-12-25 18:16:43,779,771,789,868,792,-0.27,-8.93,5.22,-0.10,0.00,-0.36
2024-12-25 18:16:43,780,772,788,869,792,-0.07,-8.85,4.81,0.02,0.05,0.04
2024-12-25 18:16:44,779,773,787,871,792,-0.28,-8.65,5.50,-0.07,-0.02,0.01
2024-12-25 18:16:44,778,772,788,870,791,-0.24,-8.91,5.17,0.09,-0.10,0.08
2024-12-25 18:16:44,781,771,789,872,791,-0.02,-9.07,4.93,-0.17,0.10,-0.18
2024-12-25 18:16:44,780,771,788,872,792,0.12,-8.59,4.90,-0.03,-0.06,0.01
2024-12-25 18:16:44,778,771,788,870,791,-0.43,-9.45,5.23,0.10,0.14,0.23
2024-12-25 18:16:44,780,773,790,870,792,-0.40,-8.38,5.23,-0.03,-0.02,-0.03
2024-12-25 18:16:45,780,770,790,870,790,-0.58,-8.83,4.99,0.06,0.08,0.08
2024-12-25 18:16:45,778,771,788,871,792,-0.79,-8.94,5.69,-0.06,0.11,-0.05
2024-12-25 18:16:45,778,772,791,871,792,-0.68,-8.65,5.21,-0.15,0.08,0.01
2024-12-25 18:16:45,778,772,789,872,792,-1.33,-9.05,5.27,0.10,0.58,-0.01
2024-12-25 18:16:45,772,768,785,868,788,-1.26,-8.52,4.91,-0.24,0.40,0.11
2024-12-25 18:16:46,774,771,785,869,787,-2.06,-8.99,4.56,-0.32,0.12,0.11
2024-12-25 18:16:46,770,772,786,867,780,-2.67,-9.29,4.50,-0.42,0.10,-0.01
2024-12-25 18:16:46,769,771,783,869,780,-1.87,-8.50,2.95,-0.10,0.04,-0.09
2024-12-25 18:16:46,771,771,786,867,779,-1.79,-9.62,3.62,0.03,0.10,0.00
2024-12-25 18:16:46,772,769,784,859,772,-1.70,-9.10,3.69,0.18,-0.12,0.12
2024-12-25 18:16:47,768,770,783,861,771,-2.42,-9.26,4.24,-0.20,-0.18,0.08
2024-12-25 18:16:47,770,770,785,862,777,-2.20,-8.55,3.96,-0.26,-0.16,0.00
2024-12-25 18:16:47,776,771,784,864,778,-2.47,-9.41,2.92,-0.19,-0.05,-0.01
2024-12-25 18:16:47,775,769,785,865,778,-1.98,-9.16,3.48,0.11,0.00,-0.04
2024-12-25 18:16:47,777,769,786,863,780,-1.86,-9.32,3.71,0.10,-0.04,-0.02
2024-12-25 18:16:47,773,771,784,862,779,-1.98,-8.80,3.75,0.00,-0.03,-0.08
2024-12-25 18:16:48,775,770,787,864,780,-1.92,-9.20,3.97,0.04,0.03,-0.07
2024-12-25 18:16:48,774,770,789,865,781,-1.62,-9.12,4.16,-0.03,-0.02,-0.01
2024-12-25 18:16:48,773,772,788,863,781,-1.97,-8.88,3.93,-0.06,0.03,0.06
2024-12-25 18:16:48,776,771,787,865,781,-1.78,-9.31,3.98,0.03,-0.07,-0.04
2024-12-25 18:16:48,774,771,787,862,781,-1.88,-8.95,4.25,-0.05,0.05,-0.00
2024-12-25 18:16:49,774,772,788,864,780,-1.87,-8.86,4.58,-0.02,0.03,-0.00
2024-12-25 18:16:49,775,770,786,863,779,-1.63,-9.21,4.05,-0.00,0.09,-0.05
2024-12-25 18:16:49,771,771,788,862,780,-1.45,-8.94,4.32,-0.01,-0.01,-0.02
2024-12-25 18:16:49,776,771,788,863,780,-1.96,-9.08,4.39,0.02,0.02,0.02
2024-12-25 18:16:49,774,770,788,862,781,-1.76,-8.69,4.31,0.01,-0.01,-0.06
2024-12-25 18:16:50,773,771,788,863,780,-1.65,-9.42,4.59,-0.03,0.09,-0.01
2024-12-25 18:16:50,775,770,788,864,778,-1.19,-8.88,4.31,0.03,-0.06,-0.07
2024-12-25 18:16:50,774,771,785,862,782,-1.99,-9.03,4.79,-0.06,-0.05,0.01
2024-12-25 18:16:50,775,771,788,865,781,-1.64,-8.75,4.89,0.01,0.05,0.01
2024-12-25 18:16:50,775,771,789,864,780,-1.51,-8.92,4.72,-0.07,0.04,-0.07
2024-12-25 18:16:50,773,772,790,864,780,-1.55,-8.81,4.87,-0.07,0.00,-0.01
2024-12-25 18:16:51,774,772,790,864,780,-1.42,-8.87,4.70,-0.03,0.05,-0.02
2024-12-25 18:16:51,771,770,788,863,778,-1.36,-8.74,5.01,0.01,-0.12,-0.09
2024-12-25 18:16:51,775,773,790,862,779,-1.63,-8.98,4.69,0.01,0.06,-0.02
2024-12-25 18:16:51,775,773,790,863,780,-1.23,-8.89,4.96,0.01,0.04,-0.06
2024-12-25 18:16:51,771,772,788,861,781,-1.36,-8.88,5.09,-0.06,0.03,-0.01
2024-12-25 18:16:52,773,774,790,864,780,-1.30,-8.69,4.97,0.00,0.03,-0.01
2024-12-25 18:16:52,773,772,790,864,782,-1.30,-8.81,5.10,0.02,-0.02,-0.03
2024-12-25 18:16:52,774,771,790,861,779,-1.30,-8.74,5.35,-0.00,-0.03,-0.02
2024-12-25 18:16:52,775,772,790,864,781,-1.26,-8.74,5.14,-0.05,0.01,-0.00
2024-12-25 18:16:52,772,773,790,864,780,-1.19,-8.61,5.08,-0.01,-0.01,-0.01
2024-12-25 18:16:52,775,773,793,866,781,-1.40,-8.79,5.51,-0.02,0.01,-0.01
2024-12-25 18:16:53,774,772,788,861,781,-1.50,-8.88,5.13,-0.46,0.29,-0.10
2024-12-25 18:16:53,775,772,786,865,783,-1.03,-8.77,3.91,-0.25,0.18,-0.09
2024-12-25 18:16:53,773,772,786,865,783,-1.45,-9.20,4.22,0.13,-0.09,0.06
2024-12-25 18:16:53,774,773,785,862,783,-1.13,-9.06,4.66,0.01,-0.00,-0.02
2024-12-25 18:16:53,774,773,785,865,785,-1.29,-8.92,4.79,0.03,-0.06,0.05
2024-12-25 18:16:54,772,771,787,866,785,-1.46,-8.93,4.70,0.12,-0.01,0.03
2024-12-25 18:16:54,774,772,786,865,786,-1.28,-8.86,4.85,0.21,0.04,0.03
2024-12-25 18:16:54,775,772,789,864,784,-1.30,-8.67,6.62,0.15,-0.36,0.03
2024-12-25 18:16:54,772,772,789,865,784,-1.40,-8.48,5.44,-0.14,0.18,0.20
2024-12-25 18:16:54,773,772,786,864,782,-1.52,-8.51,5.56,-0.31,-0.03,-0.13
2024-12-25 18:16:55,772,773,788,867,785,-1.93,-8.75,4.90,-0.36,-0.03,-0.09
2024-12-25 18:16:55,773,773,788,864,785,-1.09,-8.99,4.43,-0.15,0.13,-0.12
2024-12-25 18:16:55,774,772,787,865,783,-1.54,-9.39,4.68,-0.46,0.08,0.06
2024-12-25 18:16:55,772,773,787,863,784,-1.68,-8.90,3.10,-0.06,0.31,0.22
2024-12-25 18:16:55,772,772,784,864,782,-2.16,-9.33,2.84,-0.32,0.14,0.19
2024-12-25 18:16:55,773,772,785,866,785,-2.15,-9.53,2.28,0.00,0.18,-0.16
2024-12-25 18:16:56,772,770,782,865,783,-2.16,-9.47,2.61,-0.04,0.15,-0.28
2024-12-25 18:16:56,770,769,785,862,782,-1.16,-9.57,2.29,0.02,0.18,-0.29
2024-12-25 18:16:56,773,769,783,863,782,-1.30,-9.88,2.60,-0.01,0.10,0.01
2024-12-25 18:16:56,774,769,784,866,781,-1.19,-9.69,2.58,0.03,0.01,-0.03
2024-12-25 18:16:56,771,768,781,860,780,-0.96,-9.62,2.56,0.11,-0.08,-0.02
2024-12-25 18:16:57,772,769,784,863,782,-0.86,-9.51,2.82,0.06,-0.09,0.01
2024-12-25 18:16:57,772,768,787,865,782,-1.10,-9.57,2.85,0.00,-0.06,0.04
2024-12-25 18:16:57,772,769,785,863,780,-1.13,-9.56,3.16,0.03,-0.03,0.03
2024-12-25 18:16:57,774,769,787,862,782,-1.28,-9.42,3.44,-0.05,-0.02,0.01
2024-12-25 18:16:57,774,770,785,863,781,-1.36,-9.51,3.18,-0.00,0.02,-0.01
2024-12-25 18:16:58,771,769,786,863,781,-1.20,-9.53,3.27,-0.13,0.06,-0.04
2024-12-25 18:16:58,775,771,787,863,781,-1.23,-9.45,3.11,0.01,0.01,-0.00
2024-12-25 18:16:58,773,770,786,864,782,-1.38,-9.58,3.30,-0.07,0.06,0.02
2024-12-25 18:16:58,775,768,785,861,779,-1.28,-9.36,3.16,-0.02,0.02,-0.03
2024-12-25 18:16:58,775,769,787,865,782,-1.43,-9.51,3.44,-0.00,0.02,-0.02
2024-12-25 18:16:58,771,768,786,862,782,-1.25,-9.33,3.28,-0.01,0.04,-0.03
2024-12-25 18:16:59,774,770,790,863,782,-1.33,-9.62,3.50,-0.01,0.04,-0.04
2024-12-25 18:16:59,774,770,786,861,783,-1.18,-9.40,3.27,-0.09,0.02,-0.02
2024-12-25 18:16:59,771,770,787,863,783,-1.32,-9.45,3.48,0.01,0.03,-0.02
2024-12-25 18:16:59,776,771,788,863,782,-1.24,-9.45,3.47,-0.14,0.08,-0.04
2024-12-25 18:16:59,773,770,784,861,779,-1.23,-9.40,3.08,-0.11,0.11,-0.03
2024-12-25 18:17:00,773,771,786,863,782,-1.14,-9.58,2.96,-0.08,0.03,-0.05
2024-12-25 18:17:00,771,769,784,863,781,-1.06,-9.63,2.90,-0.10,-0.03,-0.07
2024-12-25 18:17:00,773,771,786,862,781,-1.17,-9.38,2.89,0.01,-0.03,0.00
2024-12-25 18:17:00,772,770,788,864,780,-1.02,-9.40,3.05,0.04,0.04,0.02
2024-12-25 18:17:00,770,770,785,861,782,-1.23,-9.73,3.34,0.03,0.04,-0.04
2024-12-25 18:17:01,773,771,785,863,782,-0.86,-9.41,3.19,-0.07,0.05,-0.06
2024-12-25 18:17:01,774,770,786,864,782,-1.17,-9.42,3.06,0.03,-0.02,0.02
2024-12-25 18:17:01,771,772,786,863,780,-1.09,-9.57,3.51,0.06,0.02,0.01
2024-12-25 18:17:01,771,773,788,860,781,-1.29,-9.39,3.13,-0.08,0.05,0.00
2024-12-25 18:17:01,771,775,788,863,782,-1.27,-9.51,3.65,0.01,-0.00,-0.00
2024-12-25 18:17:01,771,776,787,861,782,-1.19,-9.35,3.54,-0.02,0.02,-0.02
2024-12-25 18:17:02,772,775,786,862,780,-1.35,-9.81,3.67,-0.34,0.24,-0.19
2024-12-25 18:17:02,773,776,787,864,782,-0.85,-9.04,2.53,0.06,0.01,0.07
2024-12-25 18:17:02,773,775,785,861,781,-1.19,-9.75,2.56,0.14,-0.05,-0.03
2024-12-25 18:17:02,774,774,785,862,782,-1.24,-9.76,2.72,-0.00,-0.10,0.07
2024-12-25 18:17:02,775,776,785,862,782,-1.06,-9.38,3.47,-0.00,0.02,0.01
2024-12-25 18:17:03,776,774,788,862,783,-1.18,-9.54,2.98,0.00,0.01,-0.03
2024-12-25 18:17:03,776,776,785,862,782,-1.41,-9.79,3.39,-0.13,0.15,0.01
2024-12-25 18:17:03,774,774,787,864,783,-1.21,-9.39,3.00,-0.26,0.17,-0.05
2024-12-25 18:17:03,772,772,783,860,784,-1.19,-9.47,2.62,-0.07,0.00,-0.08
2024-12-25 18:17:03,775,775,786,860,783,-1.00,-9.71,2.97,0.06,-0.08,0.02
2024-12-25 18:17:04,774,773,786,862,783,-1.31,-9.71,2.82,-0.06,0.03,-0.01
2024-12-25 18:17:04,778,773,786,861,783,-1.14,-9.45,3.02,-0.03,0.03,-0.04
2024-12-25 18:17:04,777,775,787,863,782,-1.07,-9.49,3.02,0.02,0.04,-0.03
2024-12-25 18:17:04,775,773,786,860,782,-1.05,-9.66,3.10,0.01,0.00,0.00
2024-12-25 18:17:04,774,774,786,862,783,-1.24,-9.46,3.22,-0.10,0.02,-0.04
2024-12-25 18:17:04,776,774,786,862,782,-1.02,-9.66,3.01,-0.13,0.13,-0.02
2024-12-25 18:17:05,776,775,784,862,782,-1.07,-9.68,2.92,-0.18,0.13,-0.06
2024-12-25 18:17:05,773,773,783,861,782,-1.07,-9.56,2.79,0.27,0.24,-0.08
2024-12-25 18:17:05,773,771,783,865,780,-0.97,-9.44,3.24,0.00,0.17,-0.01
2024-12-25 18:17:05,770,770,783,860,779,-0.95,-9.65,2.65,-0.09,-0.03,0.01
2024-12-25 18:17:05,769,771,785,862,778,-1.17,-9.51,2.89,-0.05,-0.07,0.05
2024-12-25 18:17:06,773,771,783,862,779,-1.12,-9.51,3.14,-0.01,-0.04,0.04
2024-12-25 18:17:06,770,771,785,860,778,-1.19,-9.72,3.17,-0.02,-0.13,-0.01
2024-12-25 18:17:06,773,772,787,863,780,-1.19,-9.14,2.56,-0.11,0.10,0.01
2024-12-25 18:17:06,770,772,786,862,777,-1.13,-9.49,3.49,0.01,-0.03,0.02
2024-12-25 18:17:06,773,773,788,862,779,-1.39,-9.45,3.20,-0.00,-0.04,0.02
2024-12-25 18:17:06,772,773,787,862,780,-0.95,-9.61,3.09,0.04,0.11,0.00
2024-12-25 18:17:07,772,773,785,859,778,-1.24,-9.51,3.58,-0.05,-0.03,-0.04
2024-12-25 18:17:07,772,775,786,861,780,-1.27,-9.47,3.30,-0.01,0.05,0.05
2024-12-25 18:17:07,769,773,787,862,780,-1.31,-9.47,3.44,-0.05,-0.00,-0.01
2024-12-25 18:17:07,770,772,786,863,777,-1.09,-9.29,3.44,-0.04,0.04,-0.02
2024-12-25 18:17:07,772,774,789,861,778,-1.24,-9.51,3.53,-0.01,0.03,-0.03
2024-12-25 18:17:08,771,773,787,861,778,-1.22,-9.47,3.42,-0.02,0.01,0.01
2024-12-25 18:17:08,773,774,789,860,777,-1.15,-9.30,3.60,-0.03,0.02,-0.02
2024-12-25 18:17:08,773,775,784,861,779,-1.06,-9.55,3.38,-0.01,0.01,-0.04
2024-12-25 18:17:08,774,774,786,858,778,-1.25,-9.37,3.52,-0.08,0.04,-0.04
2024-12-25 18:17:08,771,775,788,865,780,-1.12,-9.45,3.71,-0.02,-0.00,-0.02
2024-12-25 18:17:09,774,775,788,861,779,-0.91,-9.39,3.22,-0.19,-0.01,-0.05
2024-12-25 18:17:09,770,773,785,861,778,-1.03,-9.47,3.34,-0.32,0.18,-0.04
2024-12-25 18:17:09,772,771,785,860,778,-0.90,-9.81,2.44,-0.14,-0.05,-0.09
2024-12-25 18:17:09,772,773,785,861,778,-0.86,-9.61,2.91,0.08,-0.02,0.02
2024-12-25 18:17:09,771,772,785,861,777,-0.68,-9.67,3.26,0.02,0.05,-0.03
2024-12-25 18:17:09,772,773,786,864,779,-0.75,-9.73,2.68,-0.18,0.15,-0.01
2024-12-25 18:17:10,772,773,784,861,778,-1.12,-9.87,2.15,-0.31,0.22,0.15
2024-12-25 18:17:10,771,772,782,860,777,-1.70,-9.45,2.26,0.07,0.11,0.14
2024-12-25 18:17:10,769,773,784,857,778,-2.10,-9.82,2.43,0.04,0.08,0.10
2024-12-25 18:17:10,771,771,784,859,776,-2.08,-9.37,2.38,0.04,0.07,0.05
2024-12-25 18:17:10,771,772,785,861,776,-2.01,-9.39,2.61,-0.09,0.07,-0.03
2024-12-25 18:17:11,769,771,781,857,777,-1.98,-9.64,2.90,0.08,0.20,-0.07
2024-12-25 18:17:11,769,772,783,859,774,-1.88,-9.52,2.55,-0.02,0.04,-0.03
2024-12-25 18:17:11,769,771,784,860,776,-2.02,-9.56,2.62,-0.05,0.02,-0.02
2024-12-25 18:17:11,769,769,780,859,775,-1.92,-9.46,2.48,0.01,0.03,-0.00
2024-12-25 18:17:11,769,772,783,858,775,-1.84,-9.45,2.82,-0.06,-0.01,-0.01
2024-12-25 18:17:12,770,772,782,857,774,-1.95,-9.34,2.70,-0.03,-0.04,-0.02
2024-12-25 18:17:12,771,772,783,859,776,-1.86,-9.44,2.98,0.03,-0.00,0.01
2024-12-25 18:17:12,770,770,783,860,775,-1.90,-9.19,3.16,0.06,-0.00,0.02
2024-12-25 18:17:12,768,772,785,858,776,-2.10,-9.45,3.45,0.02,0.01,-0.00
2024-12-25 18:17:12,769,771,784,859,776,-1.79,-9.18,3.31,-0.00,0.02,-0.01
2024-12-25 18:17:12,770,772,784,860,776,-1.95,-9.30,3.66,0.03,-0.05,-0.00
2024-12-25 18:17:13,770,772,785,858,775,-2.10,-9.16,3.67,0.02,-0.01,-0.01
2024-12-25 18:17:13,773,773,787,860,776,-1.79,-9.21,3.65,-0.05,0.00,-0.02
2024-12-25 18:17:13,771,772,784,858,777,-1.96,-9.05,3.76,0.02,-0.04,-0.01
2024-12-25 18:17:13,770,774,787,861,775,-2.07,-9.15,3.96,-0.14,0.01,-0.02
2024-12-25 18:17:13,769,772,782,860,776,-1.69,-9.07,3.49,-0.05,0.02,-0.02
2024-12-25 18:17:14,772,773,785,858,776,-1.93,-9.38,4.04,-0.06,0.02,0.05
2024-12-25 18:17:14,770,772,785,860,776,-1.89,-9.18,3.23,-0.17,-0.01,-0.13
2024-12-25 18:17:14,770,774,785,859,776,-1.57,-8.98,3.63,-0.02,-0.13,-0.02
2024-12-25 18:17:14,769,773,784,861,776,-1.75,-9.45,3.92,0.02,0.08,0.04
2024-12-25 18:17:14,766,773,784,859,776,-1.40,-9.05,3.56,-0.05,-0.10,0.03
2024-12-25 18:17:15,770,774,785,858,777,-1.75,-9.33,3.73,0.01,-0.09,0.12
2024-12-25 18:17:15,772,773,788,859,777,-2.09,-8.96,3.96,-0.10,-0.17,0.23
2024-12-25 18:17:15,771,772,786,856,777,-2.22,-9.65,3.99,-0.12,-0.02,0.24
2024-12-25 18:17:15,771,773,783,857,776,-3.01,-8.59,3.34,-0.34,0.03,0.06
2024-12-25 18:17:15,769,773,785,860,777,-3.08,-8.75,2.99,-0.08,0.03,-0.10
2024-12-25 18:17:15,770,773,783,860,778,-2.68,-9.02,2.98,0.08,0.10,-0.09
2024-12-25 18:17:16,772,773,785,860,777,-2.46,-9.37,3.43,-0.01,0.16,-0.16
2024-12-25 18:17:16,771,772,783,860,776,-2.04,-9.33,2.94,-0.05,0.04,-0.09
2024-12-25 18:17:16,771,773,785,858,777,-1.97,-9.10,3.28,0.06,-0.03,-0.01
2024-12-25 18:17:16,772,773,786,858,776,-2.17,-9.38,3.35,0.00,-0.04,-0.03
2024-12-25 18:17:16,769,772,784,857,776,-2.18,-9.28,3.51,-0.07,0.04,-0.03
2024-12-25 18:17:17,773,773,785,859,777,-2.13,-9.13,3.56,-0.09,0.03,0.01
2024-12-25 18:17:17,769,772,783,857,775,-2.32,-9.46,3.15,-0.24,0.10,-0.06
2024-12-25 18:17:17,772,774,782,860,776,-1.48,-9.08,2.36,-0.03,-0.00,-0.25
2024-12-25 18:17:17,773,771,781,856,776,-1.52,-9.74,3.17,0.27,-0.01,0.19
2024-12-25 18:17:17,771,774,782,857,776,-1.99,-9.43,2.88,-0.13,-0.12,-0.07
2024-12-25 18:17:18,772,774,784,858,778,-1.96,-9.60,3.23,-0.10,0.06,0.03
2024-12-25 18:17:18,769,772,782,859,777,-1.86,-9.07,2.58,-0.15,-0.03,0.01
2024-12-25 18:17:18,771,773,786,859,776,-2.07,-9.45,2.90,-0.03,0.05,-0.01
2024-12-25 18:17:18,772,773,784,858,775,-1.93,-9.32,2.84,-0.06,0.02,-0.03
2024-12-25 18:17:18,771,773,784,856,776,-1.97,-9.33,2.63,-0.04,0.03,-0.04
2024-12-25 18:17:18,772,773,785,862,778,-1.89,-9.48,3.11,0.05,0.02,-0.05
2024-12-25 18:17:19,770,773,784,859,778,-1.75,-9.47,2.91,-0.00,0.03,-0.00
2024-12-25 18:17:19,772,774,784,861,778,-1.76,-9.48,3.11,-0.07,0.06,-0.01
2024-12-25 18:17:19,772,773,783,859,777,-1.97,-9.36,3.05,-0.04,-0.04,-0.04
2024-12-25 18:17:19,772,775,785,858,778,-1.75,-9.06,2.91,0.05,0.02,-0.13
2024-12-25 18:17:19,771,775,785,859,778,-1.42,-9.85,3.19,0.12,0.14,0.02
2024-12-25 18:17:20,771,774,784,859,779,-1.45,-9.41,3.29,-0.10,0.03,-0.06
2024-12-25 18:17:20,770,774,787,860,778,-1.79,-9.33,3.06,-0.08,-0.01,0.01
2024-12-25 18:17:20,772,774,787,861,779,-1.69,-9.38,3.29,-0.01,0.04,-0.02
2024-12-25 18:17:20,770,773,785,859,779,-1.63,-9.40,3.26,-0.03,0.02,-0.02
2024-12-25 18:17:20,774,774,784,860,778,-1.77,-9.49,3.21,-0.16,0.09,-0.04
2024-12-25 18:17:21,771,773,784,858,777,-1.73,-9.43,2.84,-0.16,0.11,-0.02
2024-12-25 18:17:21,772,773,785,858,777,-1.56,-9.44,2.90,-0.03,0.08,-0.07
2024-12-25 18:17:21,773,774,784,857,778,-1.58,-9.63,2.83,-0.01,0.04,0.01
2024-12-25 18:17:21,772,773,784,858,778,-1.72,-9.51,2.82,-0.09,0.06,-0.03
2024-12-25 18:17:21,771,774,786,857,779,-1.58,-9.55,2.57,-0.06,0.01,-0.02
2024-12-25 18:17:21,770,771,784,859,779,-1.62,-9.55,2.72,-0.06,0.05,-0.04
2024-12-25 18:17:22,772,773,784,860,780,-1.55,-9.54,2.64,-0.04,0.01,-0.01
2024-12-25 18:17:22,771,774,784,868,786,-1.65,-9.59,2.70,-0.11,-0.03,-0.03
2024-12-25 18:17:22,772,774,784,872,792,-1.51,-9.59,2.28,-0.16,0.06,-0.02
2024-12-25 18:17:22,771,775,785,871,793,-1.37,-9.84,2.37,-0.05,-0.04,0.05
2024-12-25 18:17:22,770,772,787,871,791,-1.69,-9.75,2.37,0.04,0.05,-0.00
2024-12-25 18:17:23,773,774,785,871,791,-1.44,-9.76,2.29,-0.00,0.04,-0.00
2024-12-25 18:17:23,770,773,785,870,792,-1.57,-9.69,2.34,-0.03,0.00,-0.03
2024-12-25 18:17:23,770,774,786,870,791,-1.55,-9.58,2.30,-0.01,0.03,0.00
2024-12-25 18:17:23,774,774,787,873,792,-1.42,-9.60,2.21,-0.08,0.03,0.01
2024-12-25 18:17:23,771,773,785,870,792,-1.44,-9.61,2.04,-0.13,0.05,0.00
2024-12-25 18:17:24,771,772,786,871,790,-1.49,-9.63,2.13,-0.07,0.02,-0.00
2024-12-25 18:17:24,770,774,786,874,792,-1.56,-9.67,2.26,-0.04,0.03,-0.02
2024-12-25 18:17:24,769,771,783,870,789,-1.53,-9.61,2.32,-0.02,0.05,-0.03
2024-12-25 18:17:24,772,774,786,870,791,-1.47,-9.61,2.39,-0.02,0.03,-0.02
2024-12-25 18:17:24,771,774,787,871,789,-1.55,-9.62,2.45,-0.01,0.00,-0.02
2024-12-25 18:17:24,771,774,786,870,789,-1.56,-9.62,2.49,-0.05,0.05,-0.02
2024-12-25 18:17:25,774,773,786,870,791,-1.45,-9.58,2.55,-0.02,0.01,-0.02
2024-12-25 18:17:25,770,775,786,868,791,-1.52,-9.68,2.75,0.02,-0.02,-0.02
2024-12-25 18:17:25,774,775,786,868,790,-1.34,-9.58,2.22,-0.00,-0.00,-0.12
2024-12-25 18:17:25,769,772,786,868,789,-1.25,-9.86,3.05,0.16,-0.03,0.08
2024-12-25 18:17:25,772,775,786,869,787,-1.58,-9.77,2.75,0.00,0.05,0.04
2024-12-25 18:17:26,770,776,787,869,788,-1.56,-9.59,2.84,-0.06,0.02,-0.02
2024-12-25 18:17:26,771,775,786,868,788,-1.60,-9.54,2.70,-0.16,0.06,-0.04
2024-12-25 18:17:26,772,773,786,866,790,-1.41,-9.47,2.42,0.02,0.05,0.00
2024-12-25 18:17:26,772,774,787,869,789,-1.35,-9.63,2.88,0.04,0.00,-0.03
2024-12-25 18:17:26,772,773,786,868,788,-1.69,-9.65,3.02,-0.03,0.03,-0.01
2024-12-25 18:17:27,772,774,786,868,788,-1.34,-9.43,2.94,-0.04,0.05,0.00
2024-12-25 18:17:27,770,773,788,868,788,-1.44,-9.49,2.92,-0.02,0.02,-0.03
2024-12-25 18:17:27,771,775,785,866,789,-1.52,-9.67,3.00,-0.03,0.08,0.00
2024-12-25 18:17:27,772,774,787,866,789,-1.42,-9.51,2.86,-0.05,0.01,-0.08
2024-12-25 18:17:27,772,774,786,867,788,-1.33,-9.54,2.60,-0.01,0.07,-0.02
2024-12-25 18:17:27,770,773,784,867,789,-1.36,-9.67,3.17,-0.04,0.06,-0.03
2024-12-25 18:17:28,770,776,788,868,787,-1.13,-9.36,2.88,-0.04,-0.00,-0.02
2024-12-25 18:17:28,772,773,784,866,787,-1.37,-9.58,2.98,-0.03,0.05,-0.01
2024-12-25 18:17:28,772,775,787,869,790,-1.31,-9.58,2.89,0.00,0.02,-0.03
2024-12-25 18:17:28,771,775,787,867,788,-1.36,-9.56,2.95,-0.06,0.06,0.01
2024-12-25 18:17:28,772,774,785,866,789,-1.50,-9.62,2.89,-0.07,0.03,0.03
2024-12-25 18:17:29,772,775,787,867,788,-1.58,-9.42,2.55,-0.05,0.03,-0.07
2024-12-25 18:17:29,770,774,787,867,788,-1.21,-9.50,3.03,0.01,0.02,0.04
2024-12-25 18:17:29,773,772,788,865,788,-1.68,-9.38,3.31,-0.01,-0.15,-0.02
2024-12-25 18:17:29,772,774,788,867,788,-1.75,-9.76,2.74,-0.03,0.07,-0.00
2024-12-25 18:17:29,770,774,785,866,788,-1.32,-9.38,3.00,-0.01,0.02,-0.01
2024-12-25 18:17:30,773,774,788,869,788,-1.36,-9.43,3.28,-0.03,0.04,-0.00
2024-12-25 18:17:30,771,774,788,866,789,-1.47,-9.62,3.01,-0.10,0.03,-0.04
2024-12-25 18:17:30,771,774,788,868,787,-1.50,-9.37,2.83,-0.09,0.01,-0.03
2024-12-25 18:17:30,772,773,786,866,788,-1.28,-9.50,2.78,0.05,0.05,-0.02
2024-12-25 18:17:30,769,774,786,865,787,-1.17,-9.55,3.09,-0.00,0.04,-0.05
2024-12-25 18:17:30,771,775,788,867,788,-1.28,-9.50,2.95,-0.08,0.02,0.00
2024-12-25 18:17:31,773,773,788,869,789,-1.28,-9.52,3.04,-0.02,0.02,0.01
2024-12-25 18:17:31,772,776,786,865,788,-1.45,-9.49,2.92,-0.03,0.02,-0.01
2024-12-25 18:17:31,772,776,787,867,788,-1.32,-9.51,3.10,0.01,0.07,-0.03
2024-12-25 18:17:31,773,773,787,868,789,-1.37,-9.57,2.96,-0.12,0.04,-0.04
2024-12-25 18:17:31,773,776,787,865,788,-1.26,-9.56,2.94,-0.06,0.05,-0.01
2024-12-25 18:17:32,774,774,788,870,787,-1.35,-9.56,2.85,-0.15,0.09,-0.06
2024-12-25 18:17:32,770,774,785,867,790,-1.14,-9.52,2.52,-0.07,0.07,-0.08
2024-12-25 18:17:32,769,776,784,870,787,-1.13,-9.68,2.69,0.01,0.14,-0.08
2024-12-25 18:17:32,770,774,783,867,786,-1.05,-9.60,2.60,-0.06,0.05,-0.04
2024-12-25 18:17:32,770,772,784,866,787,-1.00,-9.55,2.67,-0.05,0.07,-0.04
2024-12-25 18:17:33,772,774,785,866,786,-1.03,-9.67,2.55,-0.03,0.07,-0.00
2024-12-25 18:17:33,769,771,782,865,785,-1.12,-9.74,2.76,0.01,0.06,0.04
2024-12-25 18:17:33,773,771,785,864,785,-1.21,-9.60,2.53,-0.07,0.05,0.00
2024-12-25 18:17:33,773,772,783,865,787,-1.24,-9.70,2.54,0.02,-0.01,0.03
2024-12-25 18:17:33,770,773,782,864,785,-1.36,-9.63,2.58,-0.03,0.03,0.01
2024-12-25 18:17:33,771,773,782,865,786,-1.39,-9.67,2.56,-0.05,0.04,-0.01
2024-12-25 18:17:34,770,772,785,865,786,-1.30,-9.52,2.52,-0.05,0.03,0.01
2024-12-25 18:17:34,769,773,783,866,784,-1.38,-9.61,2.55,-0.01,-0.02,0.01
2024-12-25 18:17:34,771,773,783,866,787,-1.38,-9.61,2.53,-0.06,0.00,-0.01
2024-12-25 18:17:34,770,771,784,867,785,-1.39,-9.60,2.44,-0.09,0.03,-0.01
2024-12-25 18:17:34,770,773,784,863,785,-1.53,-9.67,2.51,0.11,0.18,0.07
2024-12-25 18:17:35,770,772,784,864,786,-1.52,-9.66,2.55,-0.09,-0.07,-0.04
2024-12-25 18:17:35,771,772,783,866,785,-1.49,-9.55,2.61,-0.01,0.01,0.02
2024-12-25 18:17:35,771,773,784,864,785,-1.54,-9.56,2.66,-0.04,0.01,-0.00
2024-12-25 18:17:35,768,773,783,866,786,-1.44,-9.54,2.62,-0.00,0.03,0.01
2024-12-25 18:17:35,770,772,784,863,784,-1.49,-9.52,2.72,-0.04,-0.01,-0.03
2024-12-25 18:17:35,771,772,786,865,785,-1.54,-9.57,2.97,-0.05,0.01,-0.04
2024-12-25 18:17:36,770,772,784,864,785,-1.52,-9.55,2.78,0.07,-0.02,0.02
2024-12-25 18:17:36,770,774,785,863,786,-1.50,-9.70,2.78,-0.07,0.04,-0.02
2024-12-25 18:17:36,773,774,784,866,786,-1.48,-9.48,2.67,0.03,0.01,-0.00
2024-12-25 18:17:36,770,773,786,864,785,-1.63,-9.67,2.98,0.03,-0.01,-0.02
2024-12-25 18:17:36,772,775,788,865,786,-1.35,-9.37,3.00,-0.01,0.02,0.02
2024-12-25 18:17:37,774,775,785,867,786,-1.49,-9.49,2.90,-0.02,-0.01,-0.02
2024-12-25 18:17:37,770,774,785,863,785,-1.56,-9.42,3.09,-0.02,0.00,0.04
2024-12-25 18:17:37,771,774,785,865,784,-1.53,-9.58,2.85,-0.11,0.04,-0.01
2024-12-25 18:17:37,771,776,787,865,785,-1.74,-9.61,2.84,-0.20,0.06,-0.07
2024-12-25 18:17:37,771,775,785,865,784,-1.31,-9.46,2.28,0.04,0.05,-0.00
2024-12-25 18:17:38,771,774,785,861,787,-1.42,-9.69,2.54,0.02,-0.02,-0.02
2024-12-25 18:17:38,771,774,783,863,783,-1.43,-9.52,2.56,-0.03,-0.01,-0.00
2024-12-25 18:17:38,771,775,784,863,785,-1.52,-9.64,2.70,-0.03,0.02,-0.01
2024-12-25 18:17:38,770,773,785,862,784,-1.41,-9.50,2.64,-0.06,0.04,-0.02
2024-12-25 18:17:38,771,774,784,864,785,-1.53,-9.63,2.70,-0.03,0.01,0.01
2024-12-25 18:17:38,770,774,785,866,785,-1.50,-9.55,2.56,-0.03,-0.01,-0.01
2024-12-25 18:17:39,771,774,786,863,784,-1.51,-9.73,2.76,-0.06,0.01,-0.01
2024-12-25 18:17:39,772,775,785,866,785,-1.43,-9.54,2.52,-0.05,0.04,-0.02
2024-12-25 18:17:39,768,775,784,861,785,-1.43,-9.59,2.64,-0.02,0.02,-0.02
2024-12-25 18:17:39,771,773,786,860,786,-1.49,-9.63,2.62,-0.01,0.01,-0.01
2024-12-25 18:17:39,771,773,786,864,785,-1.53,-9.57,2.73,-0.02,0.01,0.00
2024-12-25 18:17:40,771,774,786,863,785,-1.11,-9.72,2.37,0.01,-0.07,-0.03
2024-12-25 18:17:40,771,774,788,865,785,-1.65,-9.40,2.80,-0.04,0.00,0.08
2024-12-25 18:17:40,772,775,783,862,785,-1.29,-9.48,2.75,0.02,-0.01,-0.08
2024-12-25 18:17:40,771,773,787,863,784,-1.66,-9.50,3.14,-0.01,-0.04,0.09
2024-12-25 18:17:40,770,775,786,864,786,-1.63,-9.47,2.62,-0.01,0.02,-0.01
2024-12-25 18:17:41,772,775,788,860,784,-1.47,-9.45,3.08,-0.01,0.03,-0.00
2024-12-25 18:17:41,771,776,786,866,787,-2.02,-9.69,3.40,0.01,0.18,0.04
2024-12-25 18:17:41,771,774,785,864,785,-1.13,-9.45,2.84,-0.03,-0.06,-0.09
2024-12-25 18:17:41,772,776,786,861,785,-1.80,-9.54,3.13,-0.01,-0.03,0.02
2024-12-25 18:17:41,772,776,785,865,787,-1.60,-9.50,2.62,-0.05,0.05,-0.01
2024-12-25 18:17:41,772,774,785,862,784,-1.64,-9.46,3.15,-0.16,-0.04,-0.00
2024-12-25 18:17:42,771,774,788,864,784,-1.75,-9.25,3.22,0.07,0.05,-0.03
2024-12-25 18:17:42,769,775,787,862,785,-1.50,-9.62,3.31,0.08,0.03,-0.02
2024-12-25 18:17:42,770,775,788,864,785,-1.60,-9.42,2.99,-0.10,0.03,-0.00
2024-12-25 18:17:42,770,774,789,865,785,-1.63,-9.59,3.35,-0.07,0.09,-0.04
2024-12-25 18:17:42,768,776,787,863,786,-1.50,-9.26,3.34,-0.08,0.07,0.04
2024-12-25 18:17:43,770,776,787,864,785,-1.55,-9.65,3.16,-0.03,0.09,-0.06
2024-12-25 18:17:43,769,774,786,862,785,-1.25,-9.38,2.68,-0.01,0.03,-0.05
2024-12-25 18:17:43,771,775,787,862,786,-1.69,-9.52,3.57,-0.01,0.01,0.01
2024-12-25 18:17:43,771,777,789,864,787,-1.32,-9.36,3.11,-0.02,0.02,-0.07
2024-12-25 18:17:43,768,774,785,862,782,-1.32,-9.32,3.55,-0.11,0.04,0.03
2024-12-25 18:17:44,771,774,786,864,785,-1.31,-9.46,3.49,0.02,-0.00,0.02
2024-12-25 18:17:44,772,774,786,864,785,-1.71,-9.40,3.07,-0.10,0.03,0.04
2024-12-25 18:17:44,772,774,786,862,786,-1.47,-9.31,3.20,-0.13,0.10,-0.04
2024-12-25 18:17:44,769,775,788,861,785,-1.41,-9.40,3.27,0.02,-0.03,0.00
2024-12-25 18:17:44,771,776,789,864,786,-1.60,-9.52,3.00,0.01,0.03,0.02
2024-12-25 18:17:44,771,774,788,863,785,-1.48,-9.38,3.21,-0.07,0.03,-0.03
2024-12-25 18:17:45,769,774,788,864,785,-1.44,-9.44,3.20,-0.01,-0.00,-0.03
2024-12-25 18:17:45,771,774,788,864,784,-1.63,-9.48,3.25,-0.05,0.02,-0.00
2024-12-25 18:17:45,769,773,788,860,784,-1.54,-9.36,3.17,-0.03,0.05,-0.02
2024-12-25 18:17:45,770,775,788,863,785,-1.37,-9.42,3.21,-0.03,0.03,-0.01
2024-12-25 18:17:45,772,775,790,863,786,-1.46,-9.46,2.99,-0.03,-0.06,-0.04
2024-12-25 18:17:46,771,775,790,863,784,-1.68,-9.52,3.23,-0.00,-0.00,0.08
2024-12-25 18:17:46,770,775,786,860,785,-1.64,-9.32,3.54,-0.15,0.08,-0.09
2024-12-25 18:17:46,771,775,789,862,785,-1.41,-9.41,3.19,-0.07,0.07,0.01
2024-12-25 18:17:46,771,772,789,863,785,-1.46,-9.39,3.02,-0.01,0.01,-0.02
2024-12-25 18:17:46,771,774,789,862,784,-1.66,-9.42,3.23,0.02,-0.05,0.02
2024-12-25 18:17:47,770,775,789,864,786,-1.62,-9.46,3.01,-0.03,0.01,-0.03
2024-12-25 18:17:47,772,774,787,863,785,-1.43,-9.32,3.40,-0.02,0.01,-0.06
2024-12-25 18:17:47,770,775,788,862,785,-1.39,-9.45,3.16,-0.03,0.03,-0.04
2024-12-25 18:17:47,772,775,788,862,784,-1.39,-9.36,3.33,-0.01,0.03,-0.02
2024-12-25 18:17:47,771,773,790,863,785,-1.52,-9.51,3.20,-0.14,0.08,-0.08
2024-12-25 18:17:47,771,775,787,863,786,-1.42,-9.73,2.44,-0.27,0.18,-0.19
2024-12-25 18:17:48,769,774,784,860,786,-0.59,-9.43,2.33,-0.01,0.03,-0.01
2024-12-25 18:17:48,772,775,786,864,785,-1.06,-9.69,2.60,0.12,-0.05,0.02
2024-12-25 18:17:48,772,775,787,863,786,-1.31,-9.61,2.71,-0.14,0.04,0.01
2024-12-25 18:17:48,771,773,785,862,785,-1.26,-9.64,2.46,-0.19,0.12,-0.02
2024-12-25 18:17:48,772,774,786,864,787,-0.63,-9.73,1.88,0.04,-0.02,-0.04
2024-12-25 18:17:49,771,773,787,862,785,-1.52,-9.67,2.64,-0.05,-0.09,0.11
2024-12-25 18:17:49,771,774,785,863,785,-1.10,-9.67,2.37,-0.03,-0.01,0.04
2024-12-25 18:17:49,773,776,786,863,786,-1.16,-9.48,2.17,-0.09,0.11,-0.11
2024-12-25 18:17:49,770,774,784,862,783,-0.97,-9.69,2.45,-0.00,0.04,-0.04
2024-12-25 18:17:49,771,775,787,861,785,-1.11,-9.69,2.35,-0.03,0.03,0.01
2024-12-25 18:17:50,770,774,786,864,785,-1.13,-9.72,2.40,-0.00,0.00,-0.01
2024-12-25 18:17:50,771,775,787,865,785,-1.05,-9.61,2.47,-0.05,0.00,-0.02
2024-12-25 18:17:50,771,774,788,865,786,-1.13,-9.69,2.31,-0.05,0.02,-0.08
2024-12-25 18:17:50,769,774,786,861,785,-0.91,-9.62,2.44,-0.01,-0.03,0.03
2024-12-25 18:17:50,773,775,789,863,785,-1.22,-9.80,2.40,0.02,0.05,0.00
2024-12-25 18:17:50,771,774,787,863,785,-1.11,-9.66,2.66,-0.07,0.02,-0.01
2024-12-25 18:17:51,768,776,789,861,785,-1.10,-9.69,2.44,-0.06,0.04,0.00
2024-12-25 18:17:51,770,775,788,862,785,-1.10,-9.57,2.72,-0.04,0.02,-0.01
2024-12-25 18:17:51,770,774,789,862,784,-1.08,-9.68,2.43,-0.03,0.04,-0.00
2024-12-25 18:17:51,771,774,787,861,784,-1.13,-9.66,2.80,-0.03,-0.08,-0.07
2024-12-25 18:17:51,768,776,787,863,785,-1.30,-9.59,2.61,-0.03,0.01,0.04
2024-12-25 18:17:52,771,773,789,862,786,-1.16,-9.77,2.82,-0.07,0.08,-0.01
2024-12-25 18:17:52,773,777,790,864,784,-1.09,-9.50,2.53,-0.09,0.04,0.00
2024-12-25 18:17:52,770,773,786,862,784,-1.09,-9.59,2.72,-0.00,0.01,0.00
2024-12-25 18:17:52,770,774,789,861,786,-1.21,-9.72,2.56,-0.04,0.01,0.00
2024-12-25 18:17:52,771,775,788,865,786,-1.12,-9.57,2.43,-0.14,0.11,-0.06
2024-12-25 18:17:53,770,774,787,863,785,-1.09,-9.83,2.22,-0.11,0.17,-0.11
2024-12-25 18:17:53,771,775,785,862,785,-1.11,-9.77,1.92,-0.06,0.08,0.01
2024-12-25 18:17:53,772,776,785,864,785,-0.69,-9.71,1.87,-0.02,0.04,0.01
2024-12-25 18:17:53,769,774,785,861,784,-1.72,-9.69,2.96,0.09,-0.22,0.12
2024-12-25 18:17:53,771,774,788,861,785,-1.32,-9.70,2.61,0.05,0.24,-0.07
2024-12-25 18:17:53,772,775,789,863,784,-0.58,-9.78,2.33,-0.06,0.02,-0.04
2024-12-25 18:17:54,770,773,785,862,785,-1.25,-9.83,2.49,-0.04,-0.08,0.06
2024-12-25 18:17:54,772,772,786,863,784,-1.32,-9.05,2.60,-0.12,-0.10,0.00
2024-12-25 18:17:54,773,774,787,863,783,-1.16,-9.81,2.85,0.17,-0.02,-0.06
2024-12-25 18:17:54,773,775,785,863,785,-0.98,-9.67,2.51,-0.08,0.05,0.05
2024-12-25 18:17:54,770,776,787,861,785,-1.46,-9.41,3.17,-0.01,-0.06,0.01
2024-12-25 18:17:55,771,773,788,863,786,-1.32,-9.67,2.96,-0.00,0.11,-0.08
2024-12-25 18:17:55,775,775,787,861,785,-1.14,-9.57,2.79,-0.01,0.04,0.00
2024-12-25 18:17:55,770,774,787,865,784,-1.25,-9.50,2.84,-0.05,0.00,-0.02
2024-12-25 18:17:55,771,774,786,861,784,-1.13,-9.53,2.85,0.01,0.02,0.01
2024-12-25 18:17:55,772,775,788,861,785,-1.20,-9.61,2.83,-0.08,0.04,-0.04
2024-12-25 18:17:56,769,773,788,862,786,-1.11,-9.55,3.12,-0.03,0.02,-0.03
2024-12-25 18:17:56,769,777,791,860,785,-1.18,-9.57,2.72,-0.01,0.05,0.03
2024-12-25 18:17:56,773,776,789,864,784,-1.24,-9.57,3.18,-0.06,-0.01,-0.05
2024-12-25 18:17:56,770,774,789,863,784,-0.89,-9.69,3.11,0.02,0.02,-0.10
2024-12-25 18:17:56,772,775,788,862,784,-1.22,-9.53,2.52,-0.05,-0.02,0.04
2024-12-25 18:17:56,771,775,790,864,785,-1.14,-9.62,3.16,-0.01,0.09,-0.01
2024-12-25 18:17:57,769,775,787,863,785,-1.00,-9.63,2.81,-0.00,-0.03,-0.04
2024-12-25 18:17:57,773,775,788,862,785,-0.96,-9.70,3.00,0.00,0.05,-0.00
2024-12-25 18:17:57,770,774,790,860,784,-1.13,-9.58,2.91,-0.17,0.04,-0.01
2024-12-25 18:17:57,771,774,790,862,787,-1.02,-9.51,2.93,-0.04,0.04,0.07
2024-12-25 18:17:57,770,775,789,864,786,-1.20,-9.45,2.82,-0.17,0.10,-0.04
2024-12-25 18:17:58,772,776,788,860,785,-0.79,-9.98,2.70,0.14,0.08,-0.13
2024-12-25 18:17:58,772,777,786,864,782,-0.71,-9.55,2.74,-0.17,0.06,-0.05
2024-12-25 18:17:58,771,777,782,861,782,-0.91,-9.70,2.82,-0.02,0.07,-0.03
2024-12-25 18:17:58,772,777,784,860,781,-0.80,-9.46,2.75,0.00,0.00,-0.00
2024-12-25 18:17:58,770,777,786,861,782,-0.87,-9.63,2.98,0.04,0.01,0.01
2024-12-25 18:17:59,769,777,785,858,781,-0.65,-9.60,3.25,0.06,-0.06,0.02
2024-12-25 18:17:59,770,777,785,861,781,-1.11,-9.57,3.15,-0.03,0.01,0.00
2024-12-25 18:17:59,770,777,786,862,784,-0.73,-9.46,2.98,0.02,0.10,-0.04
2024-12-25 18:17:59,769,776,787,860,782,-1.08,-9.63,3.65,-0.12,-0.07,0.07
2024-12-25 18:17:59,769,776,787,860,782,-0.88,-9.46,3.03,0.03,0.01,-0.02
2024-12-25 18:17:59,772,778,787,863,782,-0.94,-9.56,3.36,-0.10,0.09,-0.04
