Timestamp,Flex1,Flex2,Flex3,Flex4,Flex5,AccelX,AccelY,AccelZ,GyroX,GyroY,GyroZ
2024-12-29 15:19:56,788,798,817,797,775,0.69,-1.91,10.51,-0.04,0.02,-0.02
2024-12-29 15:19:56,787,799,817,798,775,0.69,-1.90,10.52,-0.04,0.02,-0.02
2024-12-29 15:19:56,788,796,816,797,776,0.67,-1.91,10.48,-0.04,0.02,-0.02
2024-12-29 15:19:56,787,796,816,797,775,0.68,-1.89,10.47,-0.04,0.02,-0.01
2024-12-29 15:19:56,789,798,816,796,775,0.68,-1.89,10.49,-0.04,0.03,-0.00
2024-12-29 15:19:56,788,797,815,796,776,0.70,-1.89,10.48,-0.03,0.02,-0.01
2024-12-29 15:19:56,789,796,815,797,775,0.61,-1.86,10.49,-0.05,0.02,-0.00
2024-12-29 15:19:56,789,795,817,797,775,0.60,-1.94,10.49,-0.05,0.02,-0.01
2024-12-29 15:19:56,789,798,817,796,776,0.66,-1.94,10.49,-0.03,0.02,-0.02
2024-12-29 15:19:56,787,796,815,797,774,0.69,-1.87,10.48,-0.04,0.03,0.00
2024-12-29 15:19:56,790,797,815,797,776,0.63,-1.87,10.48,-0.04,0.03,0.01
2024-12-29 15:19:56,789,798,815,796,775,0.65,-1.93,10.48,-0.03,0.02,-0.02
2024-12-29 15:19:56,788,797,816,797,775,0.68,-1.77,10.52,0.08,0.05,0.01
2024-12-29 15:19:56,788,797,814,798,775,0.61,-1.69,10.55,0.01,0.03,0.00
2024-12-29 15:19:56,788,796,813,797,774,0.55,-1.68,10.55,-0.04,0.03,-0.00
2024-12-29 15:19:56,788,798,815,798,774,0.60,-1.65,10.52,-0.04,0.02,-0.01
2024-12-29 15:19:56,791,797,813,798,776,0.64,-1.71,10.53,-0.05,0.02,-0.01
2024-12-29 15:19:56,788,797,815,797,775,0.64,-1.70,10.54,-0.04,0.03,-0.01
2024-12-29 15:19:56,790,797,815,797,775,0.59,-1.70,10.56,-0.03,0.03,-0.00
2024-12-29 15:19:56,789,796,816,798,774,0.59,-1.70,10.51,-0.05,0.03,-0.00
2024-12-29 15:19:56,786,796,814,798,776,0.61,-1.83,10.52,-0.05,0.02,0.01
2024-12-29 15:19:56,788,796,815,796,774,0.62,-1.76,10.53,-0.04,0.01,-0.04
2024-12-29 15:19:56,789,797,814,799,776,0.59,-1.73,10.51,-0.03,0.02,-0.02
2024-12-29 15:19:56,789,796,814,796,775,0.59,-1.75,10.50,-0.04,0.02,-0.01
2024-12-29 15:19:56,790,798,815,796,777,0.59,-1.75,10.54,-0.03,0.02,-0.01
2024-12-29 15:19:56,788,799,814,796,776,0.62,-1.72,10.55,-0.03,0.03,-0.01
2024-12-29 15:19:56,788,797,815,798,776,0.64,-1.74,10.50,-0.03,0.02,-0.02
2024-12-29 15:19:56,790,797,815,797,776,0.57,-1.78,10.54,-0.04,0.03,-0.00
2024-12-29 15:19:56,789,798,815,797,775,0.64,-1.83,10.53,-0.04,0.03,0.01
2024-12-29 15:19:56,789,798,814,798,776,0.62,-1.80,10.52,-0.04,0.01,-0.03
2024-12-29 15:19:57,787,799,814,797,774,0.60,-1.79,10.87,-0.05,-0.02,-0.02
2024-12-29 15:19:57,790,799,826,801,776,1.87,-2.70,10.87,-0.12,-0.18,-0.08
2024-12-29 15:19:57,788,799,824,800,776,0.04,-2.44,8.92,0.15,0.00,-0.03
2024-12-29 15:19:57,789,800,818,801,775,1.48,-1.96,11.78,-0.01,0.06,-0.01
2024-12-29 15:19:57,788,800,837,804,777,1.14,-3.05,10.25,-0.70,0.09,0.17
2024-12-29 15:19:58,791,800,839,806,776,0.90,-4.36,9.89,-0.97,-0.06,0.15
2024-12-29 15:19:58,789,807,846,808,778,0.63,-5.61,8.52,-0.84,-0.06,0.18
2024-12-29 15:19:58,788,810,863,821,779,-0.09,-7.03,7.50,-0.62,0.42,0.40
2024-12-29 15:19:58,791,817,878,831,782,-0.14,-7.46,7.21,-0.28,0.06,0.05
2024-12-29 15:19:58,788,841,872,825,782,0.10,-7.50,7.08,0.11,0.17,-0.04
2024-12-29 15:19:59,792,864,897,842,781,-0.23,-7.41,7.50,0.33,0.34,0.17
2024-12-29 15:19:59,792,836,893,863,782,-1.25,-7.05,7.43,-0.21,-0.01,0.05
2024-12-29 15:19:59,789,840,911,849,784,-0.57,-7.25,7.31,-0.25,-0.14,-0.02
2024-12-29 15:19:59,800,867,901,869,785,-0.92,-7.43,7.18,-0.11,0.11,-0.03
2024-12-29 15:19:59,793,873,906,889,798,-1.07,-7.69,7.04,-0.39,0.11,0.10
2024-12-29 15:19:59,799,868,918,893,814,-1.28,-7.97,6.01,-0.50,-0.03,0.07
2024-12-29 15:20:00,795,870,922,905,823,-1.18,-7.98,5.83,-0.20,0.03,0.07
2024-12-29 15:20:00,796,870,918,901,817,-1.35,-8.30,5.69,-0.15,-0.00,0.00
2024-12-29 15:20:00,800,863,923,881,810,-1.42,-8.52,5.33,-0.19,0.06,-0.05
2024-12-29 15:20:00,807,854,914,878,806,-1.57,-8.51,5.44,0.09,-0.00,-0.00
2024-12-29 15:20:00,790,877,908,887,805,-1.59,-8.34,5.86,0.19,0.06,-0.08
2024-12-29 15:20:01,775,881,909,890,805,-1.75,-8.38,5.67,-0.05,-0.00,-0.02
2024-12-29 15:20:01,782,883,918,896,814,-1.68,-8.44,5.66,-0.23,0.02,0.04
2024-12-29 15:20:01,788,876,911,892,810,-1.60,-8.63,5.36,-0.15,0.03,-0.00
2024-12-29 15:20:01,779,874,909,897,824,-1.50,-8.61,5.17,-0.18,0.05,0.14
2024-12-29 15:20:01,783,875,923,899,832,-2.01,-8.47,4.88,-0.16,-0.05,0.08
2024-12-29 15:20:02,790,873,914,903,826,-1.89,-8.66,4.75,-0.08,-0.02,-0.00
2024-12-29 15:20:02,783,873,912,904,825,-2.46,-9.17,4.94,-0.13,0.13,0.02
2024-12-29 15:20:02,783,875,914,900,823,-2.11,-9.22,4.00,-0.75,0.28,-0.04
2024-12-29 15:20:02,795,874,912,898,823,-2.11,-8.82,1.38,-0.89,0.60,-0.66
2024-12-29 15:20:02,788,874,913,898,820,-0.95,-9.72,1.19,-0.08,0.19,-0.31
2024-12-29 15:20:02,788,871,910,899,819,1.60,-9.46,1.57,0.30,-1.57,2.54
2024-12-29 15:20:03,790,868,909,897,819,-7.17,-8.69,2.93,-0.22,-0.01,-0.10
2024-12-29 15:20:03,791,871,907,897,818,-2.51,-8.94,1.81,-0.07,0.75,-1.01
2024-12-29 15:20:03,795,868,915,888,815,0.46,-10.41,1.60,0.06,1.25,-1.85
2024-12-29 15:20:03,799,870,911,888,815,3.90,-9.79,1.33,-0.26,-2.52,3.86
2024-12-29 15:20:03,802,866,910,888,816,-3.77,-9.37,2.85,-1.15,1.47,-2.75
2024-12-29 15:20:04,791,867,909,886,813,0.17,-9.67,1.39,0.05,0.03,0.37
2024-12-29 15:20:04,792,867,908,884,814,0.45,-9.81,1.87,-0.03,-0.02,-0.04
2024-12-29 15:20:04,792,866,909,886,813,0.01,-9.79,1.65,0.03,-0.01,-0.05
2024-12-29 15:20:04,797,866,908,885,814,-0.11,-10.15,1.83,-0.05,0.07,-0.07
2024-12-29 15:20:04,792,866,908,885,813,0.71,-9.71,1.96,-0.08,0.12,-0.15
2024-12-29 15:20:04,797,868,910,886,812,0.74,-10.17,1.98,0.01,-0.09,0.00
2024-12-29 15:20:05,797,865,906,887,813,-1.12,-9.02,1.88,0.49,-0.90,2.69
2024-12-29 15:20:05,802,864,908,883,813,-4.12,-7.72,3.43,-0.37,1.05,-0.76
2024-12-29 15:20:05,796,865,909,882,812,0.82,-9.51,0.90,0.18,1.76,-1.33
2024-12-29 15:20:05,796,862,912,877,811,2.22,-10.91,2.17,0.17,-1.18,1.08
2024-12-29 15:20:05,797,862,909,881,815,-6.38,-7.47,3.46,0.41,-1.25,1.07
2024-12-29 15:20:06,805,862,911,878,811,-3.93,-8.70,3.79,-0.65,2.62,-4.15
2024-12-29 15:20:06,798,863,910,877,811,0.60,-9.76,1.50,0.05,-0.14,0.42
2024-12-29 15:20:06,795,863,911,878,810,0.56,-10.07,2.09,-0.10,-0.08,0.02
2024-12-29 15:20:06,803,864,912,878,810,0.15,-9.89,2.06,-0.07,0.01,-0.01
2024-12-29 15:20:06,811,862,910,878,811,0.23,-9.91,2.03,0.01,0.06,-0.02
2024-12-29 15:20:07,806,863,907,879,812,0.15,-9.92,2.08,0.03,0.07,-0.01
2024-12-29 15:20:07,796,863,902,884,810,-0.34,-9.66,2.66,2.19,0.70,0.05
2024-12-29 15:20:07,791,863,903,886,815,-2.99,-8.78,4.08,-0.60,-1.97,2.56
2024-12-29 15:20:07,798,862,902,883,812,-4.87,-8.36,3.79,-1.43,1.96,-2.27
2024-12-29 15:20:07,813,861,905,881,808,3.21,-9.48,1.69,0.13,0.72,-0.34
2024-12-29 15:20:07,800,861,905,880,812,-0.62,-8.94,3.27,0.85,-1.56,2.86
2024-12-29 15:20:08,794,860,908,876,810,-2.95,-8.84,3.91,-1.00,0.89,-1.85
2024-12-29 15:20:08,801,861,905,880,808,0.95,-9.68,1.35,-0.06,-0.10,-0.15
2024-12-29 15:20:08,804,857,904,881,810,-4.08,-7.74,4.97,0.58,-1.03,0.69
2024-12-29 15:20:08,792,858,902,879,811,-1.94,-8.89,3.53,-0.04,0.17,-0.03
2024-12-29 15:20:08,800,858,900,880,809,-2.60,-8.85,3.77,-0.21,0.19,-0.24
2024-12-29 15:20:09,803,859,902,881,808,-2.60,-9.14,3.70,-0.20,0.32,-0.39
2024-12-29 15:20:09,792,859,900,880,809,-1.63,-9.23,2.68,-0.39,0.22,-0.35
2024-12-29 15:20:09,800,859,899,881,808,-0.67,-10.54,0.96,-0.44,1.52,-1.82
2024-12-29 15:20:09,809,859,902,882,809,1.74,-9.84,1.33,0.21,-0.44,0.78
2024-12-29 15:20:09,797,857,899,880,811,-4.63,-6.48,4.69,1.60,-1.59,1.23
2024-12-29 15:20:10,793,858,901,881,810,-1.87,-8.95,4.10,-1.54,1.28,-1.92
2024-12-29 15:20:10,801,859,900,881,809,1.13,-9.76,1.22,-0.05,-0.14,-0.10
2024-12-29 15:20:10,802,855,900,880,809,-4.35,-7.50,5.27,1.05,-1.37,0.86
2024-12-29 15:20:10,791,857,899,879,809,-1.82,-9.41,3.32,-0.86,1.49,-1.49
2024-12-29 15:20:10,798,856,900,880,808,0.75,-10.16,1.14,-0.05,-0.24,0.20
2024-12-29 15:20:10,808,855,900,879,810,-3.79,-7.98,4.85,0.74,-0.67,0.74
2024-12-29 15:20:11,798,854,899,879,810,-2.48,-8.87,3.59,-0.01,0.15,-0.03
2024-12-29 15:20:11,797,854,908,872,809,-2.35,-8.99,3.64,-0.10,0.03,-0.08
2024-12-29 15:20:11,801,855,906,874,809,-2.60,-8.97,3.92,-0.01,-0.05,-0.01
2024-12-29 15:20:11,791,855,901,879,807,-3.59,-8.95,4.27,-0.51,0.75,-0.85
2024-12-29 15:20:11,806,856,897,879,806,1.15,-9.31,0.75,-0.46,1.42,-1.38
2024-12-29 15:20:12,809,853,899,878,808,1.03,-10.56,2.14,1.77,-2.20,3.05
2024-12-29 15:20:12,803,851,898,878,809,-5.28,-8.31,5.48,-0.50,-0.10,0.00
2024-12-29 15:20:12,792,854,899,880,807,-2.21,-9.40,2.66,-0.80,1.22,-2.25
2024-12-29 15:20:12,806,854,898,877,808,0.14,-10.51,1.38,0.51,-1.19,1.42
2024-12-29 15:20:12,811,851,898,879,808,-5.31,-8.78,4.72,-0.08,-0.29,0.22
2024-12-29 15:20:13,798,851,896,879,806,-2.76,-9.60,2.21,-0.71,1.34,-2.40
2024-12-29 15:20:13,805,852,896,881,805,0.76,-10.47,1.02,0.12,-0.93,1.15
2024-12-29 15:20:13,805,851,896,878,809,-4.25,-9.36,3.31,0.06,-0.52,0.27
2024-12-29 15:20:13,802,849,896,880,808,-2.80,-8.95,2.13,0.09,0.10,0.03
2024-12-29 15:20:13,796,850,906,868,809,-2.57,-9.35,2.39,-0.20,0.09,-0.12
2024-12-29 15:20:13,807,847,908,868,809,-2.57,-9.03,2.24,0.09,0.05,0.06
2024-12-29 15:20:14,815,845,909,869,810,-2.71,-9.39,2.55,-0.09,0.11,-0.03
2024-12-29 15:20:14,818,844,911,867,808,-2.02,-9.55,1.74,-1.01,0.67,-0.82
2024-12-29 15:20:14,811,845,911,869,808,0.96,-9.60,-0.56,-0.07,0.39,-0.55
2024-12-29 15:20:14,828,851,924,884,821,-0.54,-10.21,0.99,0.25,-0.39,0.47
2024-12-29 15:20:14,830,849,923,890,832,-1.16,-9.77,1.90,0.66,-0.48,1.19
2024-12-29 15:20:15,818,849,923,888,829,-3.56,-9.22,2.65,-0.29,0.02,-0.05
2024-12-29 15:20:15,823,851,922,888,826,-2.52,-9.79,1.09,-0.79,1.38,-1.14
2024-12-29 15:20:15,831,851,921,885,824,0.84,-9.91,0.96,0.51,-1.24,1.58
2024-12-29 15:20:15,826,850,922,884,826,-4.87,-8.92,1.51,-0.29,0.63,-0.76
2024-12-29 15:20:15,818,849,919,884,820,-0.28,-9.95,0.40,-0.27,0.79,-0.90
2024-12-29 15:20:15,823,850,920,883,819,1.36,-10.08,0.79,0.79,-1.62,1.83
2024-12-29 15:20:16,830,848,918,882,823,-5.85,-8.80,3.28,-0.06,-0.47,0.39
2024-12-29 15:20:16,814,848,915,886,822,-2.89,-9.03,2.41,-0.08,0.13,-0.12
2024-12-29 15:20:16,817,849,916,886,821,-3.63,-8.93,2.69,-0.31,0.52,-0.38
2024-12-29 15:20:16,830,849,914,885,823,-2.26,-9.56,2.06,-0.21,0.69,-0.56
2024-12-29 15:20:16,815,850,911,888,820,-1.55,-10.07,0.53,-0.42,0.98,-1.27
2024-12-29 15:20:17,823,849,910,888,819,0.88,-10.16,0.87,0.59,-1.05,1.24
2024-12-29 15:20:17,827,848,908,890,820,-4.97,-9.21,2.27,-0.25,-0.52,0.40
2024-12-29 15:20:17,815,848,908,889,820,-3.20,-8.79,2.21,-0.52,1.44,-1.25
2024-12-29 15:20:17,824,849,906,888,817,1.33,-9.73,0.28,-0.18,0.62,-0.60
2024-12-29 15:20:17,823,848,905,890,820,-1.64,-8.97,2.11,0.87,-1.33,2.49
2024-12-29 15:20:18,821,849,904,891,818,-4.49,-8.79,1.57,-0.88,1.16,-1.11
2024-12-29 15:20:18,810,847,905,887,815,0.54,-9.41,0.59,0.09,1.10,-1.15
2024-12-29 15:20:18,820,849,900,890,818,0.72,-9.92,1.10,0.10,-1.66,2.34
2024-12-29 15:20:18,819,846,902,889,819,-4.56,-9.07,1.65,-0.20,-0.09,-0.18
2024-12-29 15:20:18,820,847,900,888,819,-3.05,-9.30,1.51,0.03,0.08,-0.07
2024-12-29 15:20:18,813,848,905,886,817,-2.40,-9.31,1.04,0.04,0.12,-0.14
2024-12-29 15:20:19,819,849,900,888,817,-2.67,-9.74,1.91,-0.16,-0.01,-0.14
2024-12-29 15:20:19,828,848,903,890,816,-2.45,-9.38,1.81,0.01,-0.18,-0.06
2024-12-29 15:20:19,813,847,902,889,817,-3.02,-9.41,1.98,0.14,0.19,-0.08
2024-12-29 15:20:19,824,849,902,889,816,-1.29,-11.35,1.05,-0.17,2.56,-3.00
2024-12-29 15:20:19,832,849,901,886,816,4.38,-9.35,-0.49,-0.18,-2.17,1.59
2024-12-29 15:20:20,813,846,900,890,819,-5.91,-9.09,3.50,0.06,-0.79,0.20
2024-12-29 15:20:20,817,847,898,888,816,-1.67,-9.62,1.45,-0.43,1.62,-2.04
2024-12-29 15:20:20,825,847,900,889,814,2.35,-9.37,0.54,-0.13,0.38,-0.52
2024-12-29 15:20:20,820,845,899,888,814,1.09,-10.19,0.70,-0.07,-1.72,1.83
2024-12-29 15:20:20,811,844,900,888,817,-4.63,-9.16,1.65,0.30,-0.30,0.45
2024-12-29 15:20:21,820,846,900,887,815,-1.88,-9.53,1.24,-0.14,1.39,-1.51
2024-12-29 15:20:21,825,846,899,886,814,1.66,-9.75,1.09,0.06,-0.23,0.15
2024-12-29 15:20:21,818,846,901,884,814,-2.03,-9.92,1.25,-0.06,-0.26,-0.05
2024-12-29 15:20:21,819,845,898,888,813,-0.77,-9.72,1.09,-0.07,0.00,0.01
2024-12-29 15:20:21,822,846,905,883,814,-0.85,-9.77,0.72,-0.03,0.09,-0.09
2024-12-29 15:20:21,818,845,903,883,813,0.20,-9.98,2.15,0.15,-0.24,0.04
2024-12-29 15:20:22,813,844,900,888,817,-2.73,-8.67,2.13,0.59,-1.16,1.42
2024-12-29 15:20:22,813,845,898,886,814,-2.04,-9.99,2.81,-0.37,1.68,-2.12
2024-12-29 15:20:22,824,846,898,887,814,2.94,-9.53,0.95,-0.16,-0.67,0.51
2024-12-29 15:20:22,823,847,898,885,816,-4.99,-8.74,3.50,0.17,-0.49,0.53
2024-12-29 15:20:22,811,845,897,887,814,0.18,-9.69,2.23,-0.48,0.76,-0.74
2024-12-29 15:20:23,816,844,900,884,813,-0.65,-9.50,1.73,0.12,-0.44,0.39
2024-12-29 15:20:23,820,846,900,886,813,-3.31,-9.65,1.76,0.04,0.02,0.02
2024-12-29 15:20:23,820,844,899,885,813,0.41,-9.95,1.42,-0.37,1.09,-0.86
2024-12-29 15:20:23,820,845,898,885,815,0.40,-9.86,1.33,0.23,-0.65,0.76
2024-12-29 15:20:23,814,845,899,885,815,-2.18,-10.15,2.22,-0.07,-0.23,-0.01
2024-12-29 15:20:24,817,845,901,884,816,-0.20,-9.78,1.70,-0.01,0.16,-0.11
2024-12-29 15:20:24,819,847,900,886,816,-1.58,-9.93,1.45,-0.08,-0.00,-0.03
2024-12-29 15:20:24,822,844,899,883,814,-1.91,-9.93,1.58,0.02,0.50,-0.09
2024-12-29 15:20:24,821,845,899,884,815,0.35,-10.07,1.30,0.16,0.66,-0.61
2024-12-29 15:20:24,827,844,899,888,814,1.41,-9.53,1.53,-0.71,-1.80,1.79
2024-12-29 15:20:24,814,845,899,885,817,-6.54,-8.81,2.38,0.23,0.39,-0.23
2024-12-29 15:20:25,812,847,898,884,813,1.34,-10.26,1.29,-0.32,1.16,-1.19
2024-12-29 15:20:25,819,844,897,882,813,1.22,-9.31,1.70,-0.10,-1.23,1.33
2024-12-29 15:20:25,826,844,898,884,814,-5.19,-9.19,2.33,-0.08,-0.25,0.60
2024-12-29 15:20:25,813,844,897,884,813,-1.28,-9.67,1.63,0.17,1.29,-1.42
2024-12-29 15:20:25,822,846,896,885,811,1.96,-9.19,2.60,0.21,0.43,-0.61
2024-12-29 15:20:26,817,845,897,882,814,-3.11,-9.04,1.50,-0.04,-0.83,1.84
2024-12-29 15:20:26,822,843,895,885,815,-1.50,-9.71,1.75,-0.13,0.29,-0.45
2024-12-29 15:20:26,810,844,896,885,814,-1.92,-9.59,1.60,-0.06,0.01,-0.02
2024-12-29 15:20:26,817,845,897,885,815,-2.04,-9.44,1.59,0.08,0.06,-0.00
2024-12-29 15:20:26,825,846,896,883,812,-1.28,-10.52,1.84,0.13,1.31,-1.27
2024-12-29 15:20:27,813,847,898,881,812,2.06,-9.18,1.93,0.04,-0.20,0.10
2024-12-29 15:20:27,811,845,899,884,817,-3.33,-9.51,1.99,0.31,-1.90,1.90
2024-12-29 15:20:27,814,844,913,872,813,-3.82,-8.76,2.70,-0.00,1.31,-1.34
2024-12-29 15:20:27,826,845,896,885,811,1.03,-10.02,1.42,-0.27,1.01,-0.90
2024-12-29 15:20:27,811,845,894,886,815,-0.08,-9.71,2.39,0.79,-1.36,2.81
2024-12-29 15:20:27,816,844,894,886,815,-3.96,-8.53,2.85,-0.67,0.95,-1.20
2024-12-29 15:20:28,822,844,893,887,812,1.04,-9.78,1.08,-0.11,0.42,-0.40
2024-12-29 15:20:28,822,844,893,885,815,-2.69,-8.90,2.39,0.66,-1.20,1.53
2024-12-29 15:20:28,810,846,895,885,815,-2.49,-9.36,2.52,-0.32,0.11,-0.33
2024-12-29 15:20:28,814,845,896,884,816,-2.86,-9.46,2.77,0.03,0.06,-0.11
2024-12-29 15:20:28,820,842,895,886,814,-2.69,-9.39,2.75,0.02,0.13,-0.12
2024-12-29 15:20:29,822,845,893,886,816,-2.74,-9.05,3.48,0.30,-0.10,0.23
2024-12-29 15:20:29,811,844,898,883,814,-4.55,-8.91,3.41,-0.31,1.43,-1.15
2024-12-29 15:20:29,819,845,895,885,813,2.94,-9.55,2.04,-0.10,1.33,-1.25
2024-12-29 15:20:29,819,845,893,887,813,1.30,-9.52,2.67,0.07,-2.02,2.65
2024-12-29 15:20:29,824,843,892,886,817,-5.13,-9.30,3.36,-0.26,-0.16,0.10
2024-12-29 15:20:29,811,845,892,888,812,-1.40,-9.23,2.60,-0.51,1.32,-2.08
2024-12-29 15:20:30,816,843,891,886,811,1.86,-10.00,1.45,0.05,-1.01,1.00
2024-12-29 15:20:30,819,845,892,887,816,-4.51,-8.22,3.83,0.11,-0.63,0.48
2024-12-29 15:20:30,818,844,889,888,812,-1.79,-9.30,2.49,-0.25,1.57,-1.71
2024-12-29 15:20:30,808,845,891,886,812,2.38,-9.63,1.72,-0.01,-0.33,0.28
2024-12-29 15:20:30,815,845,892,886,814,-3.94,-9.09,3.50,0.53,-0.97,0.93
2024-12-29 15:20:31,820,843,893,887,815,-1.17,-9.51,2.28,-0.27,0.20,-0.38
2024-12-29 15:20:31,809,844,892,886,813,-0.92,-9.76,2.42,-0.04,0.09,-0.22
2024-12-29 15:20:31,817,845,891,889,811,-1.27,-9.51,2.24,-0.03,-0.02,-0.00
2024-12-29 15:20:31,823,844,890,887,813,-1.92,-9.90,1.83,-0.01,0.20,-0.22
2024-12-29 15:20:31,810,845,892,887,813,1.54,-9.28,2.52,-0.11,-1.85,1.44
2024-12-29 15:20:32,816,845,891,886,816,-6.28,-7.59,4.81,0.22,0.17,-0.23
2024-12-29 15:20:32,820,844,891,888,814,-1.38,-9.70,3.00,-0.76,1.87,-2.56
2024-12-29 15:20:32,820,845,891,887,812,2.82,-9.70,1.33,-0.18,-0.90,0.71
2024-12-29 15:20:32,809,843,891,887,815,-4.82,-8.12,3.81,0.62,-0.95,0.75
2024-12-29 15:20:32,815,845,890,886,813,-0.57,-9.69,2.68,-0.49,1.60,-1.80
2024-12-29 15:20:32,825,845,888,885,813,1.86,-9.68,1.89,-0.08,-0.23,0.03
2024-12-29 15:20:33,818,845,892,885,814,-3.03,-8.78,2.79,1.02,-1.21,1.53
2024-12-29 15:20:33,810,844,891,886,815,-1.86,-9.28,3.01,-0.46,0.44,-0.70
2024-12-29 15:20:33,816,844,892,886,813,-1.91,-9.57,2.86,-0.07,0.01,-0.17
2024-12-29 15:20:33,821,845,893,886,813,-1.62,-9.43,2.81,-0.05,0.01,0.05
2024-12-29 15:20:33,811,844,891,888,814,-1.80,-9.44,2.73,0.03,0.05,-0.00
2024-12-29 15:20:34,815,847,891,888,812,-0.48,-9.59,2.98,-0.07,-0.39,-0.01
2024-12-29 15:20:34,825,843,892,887,817,-5.15,-7.75,5.39,0.65,-0.30,0.39
2024-12-29 15:20:34,817,844,892,886,814,-0.00,-9.53,4.01,-0.97,1.78,-2.84
2024-12-29 15:20:34,816,843,892,888,813,0.52,-10.03,1.48,0.11,-2.00,1.60
2024-12-29 15:20:34,817,844,892,887,815,-5.44,-8.93,4.13,-0.12,0.38,-0.32
2024-12-29 15:20:35,823,846,891,885,812,0.79,-9.77,2.00,-0.48,0.71,-1.33
2024-12-29 15:20:35,811,843,890,886,814,0.05,-10.06,2.47,0.71,-1.61,2.08
2024-12-29 15:20:35,815,844,893,887,815,-3.49,-8.64,4.70,-0.36,0.91,-0.72
2024-12-29 15:20:35,820,844,891,886,813,1.80,-9.65,2.18,-0.57,0.27,-1.13
2024-12-29 15:20:35,821,842,891,886,814,-1.28,-9.65,2.35,0.90,-1.22,2.57
2024-12-29 15:20:35,810,843,892,887,815,-2.71,-9.00,3.79,-0.28,0.14,-0.45
2024-12-29 15:20:36,815,844,891,884,813,-2.36,-8.96,3.63,-0.00,0.01,-0.00
2024-12-29 15:20:36,823,844,891,887,814,-2.00,-9.25,3.86,-0.04,-0.01,0.03
2024-12-29 15:20:36,810,843,890,886,814,-2.12,-9.24,3.56,-0.09,0.04,-0.00
2024-12-29 15:20:36,817,843,889,886,815,-2.46,-9.26,3.73,0.04,0.14,0.01
2024-12-29 15:20:36,817,844,893,887,813,-2.88,-9.70,4.14,1.49,2.41,-2.74
2024-12-29 15:20:37,826,843,891,886,812,3.13,-8.73,3.22,-1.11,-0.76,0.41
2024-12-29 15:20:37,813,843,891,886,814,-3.49,-8.94,2.96,1.03,-1.07,2.35
2024-12-29 15:20:37,806,843,891,887,813,-0.80,-9.10,3.74,-0.64,1.20,-2.08
2024-12-29 15:20:37,820,843,891,885,812,2.21,-9.37,2.15,0.04,-0.65,0.48
2024-12-29 15:20:37,818,843,891,886,814,-3.77,-8.47,4.27,0.86,-1.05,1.18
2024-12-29 15:20:38,820,842,891,885,812,-1.40,-9.34,3.73,-0.56,1.37,-1.84
2024-12-29 15:20:38,809,843,891,883,811,1.83,-10.19,2.30,0.08,-0.85,0.87
2024-12-29 15:20:38,814,843,892,887,815,-4.04,-8.50,5.31,0.05,-0.45,0.40
2024-12-29 15:20:38,818,843,891,888,814,-1.85,-8.88,3.90,-0.28,0.39,-0.28
2024-12-29 15:20:38,811,843,891,887,814,-1.15,-9.38,3.49,-0.19,0.21,-0.20
2024-12-29 15:20:38,815,841,890,886,815,-1.75,-9.32,3.56,-0.04,0.08,-0.14
2024-12-29 15:20:39,818,842,890,885,813,-1.60,-9.45,3.44,-0.02,0.05,-0.04
2024-12-29 15:20:39,813,843,890,886,812,-2.52,-9.83,3.57,-0.55,0.88,-1.03
2024-12-29 15:20:39,817,844,892,885,812,3.29,-9.50,0.85,-0.35,0.03,-0.50
2024-12-29 15:20:39,817,843,891,886,814,-3.04,-8.47,3.16,1.45,-1.25,2.24
2024-12-29 15:20:39,823,842,891,885,812,-1.96,-9.09,4.15,-0.51,0.84,-0.99
2024-12-29 15:20:40,812,844,890,885,812,1.17,-10.05,1.30,-0.77,0.75,-0.99
2024-12-29 15:20:40,818,844,892,886,813,0.97,-10.02,2.01,1.21,-1.26,2.22
2024-12-29 15:20:40,817,842,891,885,815,-3.97,-8.26,5.24,0.00,0.12,-0.05
2024-12-29 15:20:40,817,843,891,886,813,-0.58,-9.43,2.53,-1.10,0.92,-1.86
2024-12-29 15:20:40,812,844,892,885,813,2.23,-10.00,2.19,0.61,-1.58,1.93
2024-12-29 15:20:40,817,842,891,885,815,-3.67,-8.98,4.94,-0.02,-0.27,0.06
2024-12-29 15:20:41,820,843,888,885,814,-1.95,-9.32,3.45,-0.03,0.04,0.02
2024-12-29 15:20:41,811,843,891,885,813,-2.01,-9.23,3.70,-0.03,0.04,-0.05
2024-12-29 15:20:41,816,844,891,885,812,-1.90,-9.18,3.84,-0.07,0.01,0.00
2024-12-29 15:20:41,817,843,892,885,813,-2.26,-8.95,3.64,0.10,0.10,-0.07
2024-12-29 15:20:41,825,843,889,885,812,-0.57,-8.77,5.32,-0.10,1.35,-2.98
2024-12-29 15:20:42,813,844,890,886,811,1.67,-9.80,2.33,-0.17,-1.24,1.16
2024-12-29 15:20:42,813,842,891,884,815,-3.49,-8.09,3.96,0.78,-0.62,0.98
2024-12-29 15:20:42,820,844,891,885,812,-0.74,-9.50,3.79,-0.68,1.25,-2.10
2024-12-29 15:20:42,819,843,891,884,812,1.71,-9.73,1.65,0.08,-0.61,0.61
2024-12-29 15:20:42,810,844,890,886,813,-3.56,-8.45,4.55,0.58,-0.33,0.69
2024-12-29 15:20:43,811,843,891,886,812,-0.26,-9.64,3.08,-0.79,0.82,-1.25
2024-12-29 15:20:43,821,843,889,886,811,2.16,-9.43,1.65,0.09,-0.74,0.48
2024-12-29 15:20:43,825,842,889,885,814,-4.62,-7.30,6.07,0.79,-0.70,0.78
2024-12-29 15:20:43,814,843,890,887,815,-1.55,-8.94,4.07,-0.33,0.19,-0.13
2024-12-29 15:20:43,812,843,890,886,812,-1.91,-9.19,3.90,-0.14,0.07,-0.12
2024-12-29 15:20:43,818,842,890,887,813,-2.15,-9.02,4.07,-0.09,0.04,0.01
2024-12-29 15:20:44,819,843,890,884,815,-3.03,-9.21,4.13,-0.42,0.68,-0.64
2024-12-29 15:20:44,813,844,889,887,811,2.12,-9.79,0.96,-1.03,0.72,-1.00
2024-12-29 15:20:44,817,842,891,884,814,-0.20,-9.17,2.95,2.16,-1.06,3.17
2024-12-29 15:20:44,817,843,891,885,812,-3.43,-8.53,5.04,-1.05,0.76,-1.22
2024-12-29 15:20:44,817,843,891,884,811,0.71,-10.09,1.09,-0.70,0.61,-0.78
2024-12-29 15:20:45,813,843,889,884,812,1.09,-10.42,1.57,0.59,-1.25,1.23
2024-12-29 15:20:45,818,843,892,885,813,-4.39,-7.94,5.79,0.55,0.02,0.03
2024-12-29 15:20:45,821,842,890,884,812,0.53,-9.52,3.15,-1.41,0.76,-1.57
2024-12-29 15:20:45,819,843,889,885,811,0.98,-9.87,2.03,0.47,-1.26,1.55
2024-12-29 15:20:45,814,841,890,885,815,-4.25,-8.78,5.28,0.16,-0.08,-0.05
2024-12-29 15:20:46,819,843,889,887,813,-2.02,-9.19,3.55,-0.16,0.17,-0.08
2024-12-29 15:20:46,819,843,890,884,813,-1.73,-9.24,3.72,-0.06,0.03,-0.02
2024-12-29 15:20:46,816,843,890,886,814,-2.16,-8.94,3.57,0.04,0.03,0.01
2024-12-29 15:20:46,811,842,889,887,811,-2.77,-9.37,4.07,-0.12,0.82,-0.88
2024-12-29 15:20:46,817,844,889,887,811,2.83,-9.92,2.47,-0.73,0.44,-0.94
2024-12-29 15:20:46,818,844,890,886,814,-1.73,-8.32,3.71,1.90,-1.37,3.15
2024-12-29 15:20:47,821,843,891,885,812,-2.62,-9.27,3.86,-1.20,1.30,-1.80
2024-12-29 15:20:47,807,847,891,883,813,1.08,-9.56,1.79,0.03,-0.18,0.09
2024-12-29 15:20:47,816,844,891,884,810,-3.68,-8.10,4.81,0.46,-0.34,0.67
2024-12-29 15:20:47,820,844,890,884,812,-0.38,-9.45,3.06,-0.66,0.85,-1.04
2024-12-29 15:20:47,820,844,888,883,811,0.79,-9.57,2.17,-0.08,-0.12,-0.01
2024-12-29 15:20:48,803,845,889,884,811,-2.30,-8.32,4.29,1.38,-1.12,1.79
2024-12-29 15:20:48,817,842,889,885,813,-2.10,-8.90,4.28,-0.29,0.33,-0.36
2024-12-29 15:20:48,824,843,889,885,812,-2.08,-8.98,4.00,-0.07,0.04,-0.09
2024-12-29 15:20:48,810,843,889,886,812,-2.09,-9.01,3.89,-0.07,0.03,-0.02
2024-12-29 15:20:48,814,844,890,884,810,-3.20,-8.68,3.83,-0.07,0.69,-0.52
2024-12-29 15:20:49,825,842,889,885,812,1.06,-9.90,3.15,-0.70,0.44,-1.16
2024-12-29 15:20:49,811,844,890,885,813,-0.03,-9.70,2.65,0.65,-1.04,1.98
2024-12-29 15:20:49,805,843,889,885,813,-3.36,-9.13,4.03,-0.61,0.81,-0.92
2024-12-29 15:20:49,818,844,890,883,810,-0.02,-9.74,2.63,-0.51,0.46,-0.69
2024-12-29 15:20:49,817,842,890,885,812,-0.00,-9.38,2.26,0.56,-0.65,1.52
2024-12-29 15:20:49,809,844,891,883,812,-3.27,-8.98,3.70,-0.64,0.88,-1.05
2024-12-29 15:20:50,816,843,889,883,810,0.22,-9.70,1.84,-0.26,0.39,-0.43
2024-12-29 15:20:50,818,843,891,885,812,0.62,-9.75,2.10,0.85,-1.01,1.71
2024-12-29 15:20:50,824,844,890,884,812,-3.29,-9.29,3.91,-0.19,-0.01,-0.14
2024-12-29 15:20:50,806,843,890,884,813,-1.91,-9.17,3.42,0.00,0.04,0.02
2024-12-29 15:20:50,816,842,891,884,812,-1.86,-9.39,3.17,-0.03,0.05,-0.03
2024-12-29 15:20:51,818,843,890,883,813,-1.68,-9.23,3.49,0.02,0.02,-0.04
2024-12-29 15:20:51,821,843,908,865,812,-2.23,-9.01,3.53,0.15,0.14,-0.15
2024-12-29 15:20:51,811,843,908,867,812,-1.29,-10.09,3.80,-0.33,1.40,-1.41
2024-12-29 15:20:51,821,843,908,866,811,3.13,-9.34,2.17,-0.91,0.16,-0.47
2024-12-29 15:20:51,826,843,907,865,811,-1.95,-9.33,2.14,1.21,-1.32,2.39
2024-12-29 15:20:51,815,843,907,866,812,-1.46,-9.26,3.65,-0.99,0.87,-1.42
2024-12-29 15:20:52,820,842,909,867,810,1.47,-9.57,0.96,-0.24,0.13,-0.33
2024-12-29 15:20:52,816,842,908,867,812,-1.15,-9.11,2.60,1.55,-1.25,1.93
2024-12-29 15:20:52,826,842,908,866,812,-2.09,-9.05,3.66,-1.05,0.94,-1.35
2024-12-29 15:20:52,812,841,908,866,809,1.24,-9.85,1.17,-0.28,0.40,-0.47
2024-12-29 15:20:52,815,843,909,866,812,-0.52,-9.20,1.86,1.64,-0.61,1.97
2024-12-29 15:20:53,816,841,909,866,812,-2.30,-9.43,3.96,-0.47,0.30,-0.41
2024-12-29 15:20:53,820,843,907,869,813,-1.52,-9.21,3.04,0.03,-0.02,-0.06
2024-12-29 15:20:53,811,842,908,865,812,-1.48,-9.64,3.14,-0.13,0.03,-0.08
2024-12-29 15:20:53,815,843,907,868,812,-1.29,-9.45,2.85,-0.00,0.00,0.00
2024-12-29 15:20:53,823,844,908,866,812,-1.98,-8.67,2.28,0.26,-0.27,-0.33
2024-12-29 15:20:54,812,845,908,866,812,-1.52,-9.61,6.24,0.48,1.09,-0.98
2024-12-29 15:20:54,821,845,910,865,811,2.40,-9.24,1.41,-1.55,0.41,-0.49
2024-12-29 15:20:54,813,843,907,868,813,-0.20,-9.62,2.53,1.17,-1.75,2.45
2024-12-29 15:20:54,822,843,909,865,811,-2.53,-8.91,3.91,-0.77,0.98,-1.34
2024-12-29 15:20:54,811,842,906,866,809,1.90,-9.64,1.96,-0.43,0.20,-0.38
2024-12-29 15:20:54,813,844,907,867,815,-2.21,-8.56,3.06,1.65,-1.29,1.94
2024-12-29 15:20:55,813,843,908,865,811,-1.53,-9.31,4.02,-0.99,1.22,-1.32
2024-12-29 15:20:55,826,841,908,864,810,1.76,-9.57,1.30,-0.36,0.36,-0.56
2024-12-29 15:20:55,809,844,910,866,812,-0.59,-9.53,2.41,1.53,-1.39,2.46
2024-12-29 15:20:55,813,842,910,866,812,-1.08,-9.45,3.58,-0.41,0.30,-0.49
2024-12-29 15:20:55,818,842,910,867,813,-1.55,-9.55,3.54,-0.02,-0.00,-0.05
2024-12-29 15:20:56,811,843,907,867,813,-1.41,-9.28,3.46,-0.07,0.04,-0.02
2024-12-29 15:20:56,816,844,908,865,813,-1.20,-9.42,3.45,-0.02,0.01,0.00
2024-12-29 15:20:56,818,843,907,866,810,-3.38,-7.75,4.00,0.95,1.59,-1.10
2024-12-29 15:20:56,824,843,909,866,810,2.76,-9.00,2.01,-0.95,0.22,-0.30
2024-12-29 15:20:56,810,843,908,865,812,-0.72,-9.29,2.56,1.13,-1.35,2.13
2024-12-29 15:20:57,806,841,910,867,812,-1.19,-9.26,3.88,-0.80,0.91,-1.38
2024-12-29 15:20:57,819,842,907,865,810,1.20,-9.66,1.72,-0.17,-0.04,-0.12
2024-12-29 15:20:57,821,843,906,866,812,-1.96,-8.71,3.06,1.03,-0.53,1.20
2024-12-29 15:20:57,809,842,906,865,813,-1.59,-9.22,3.49,-0.89,0.86,-1.23
2024-12-29 15:20:57,815,843,908,866,810,1.53,-9.67,1.35,0.09,-0.41,0.13
2024-12-29 15:20:57,815,843,906,867,811,-2.89,-8.94,4.24,0.33,-0.33,0.22
2024-12-29 15:20:58,824,844,907,866,812,-0.83,-9.56,2.73,-0.18,0.14,-0.07
2024-12-29 15:20:58,810,841,907,866,813,-1.24,-9.42,3.14,-0.19,0.07,-0.09
2024-12-29 15:20:58,812,842,907,868,811,-1.14,-9.46,3.04,0.02,0.03,-0.03
2024-12-29 15:20:58,818,842,908,868,810,-0.95,-9.90,3.26,-0.32,0.40,-0.53
2024-12-29 15:20:58,818,844,905,863,811,0.46,-9.75,2.00,-0.29,0.25,-0.50
2024-12-29 15:20:59,811,843,908,866,812,0.93,-9.71,2.36,0.95,-0.78,1.65
2024-12-29 15:20:59,811,843,906,867,812,-2.58,-8.92,4.37,-0.36,0.73,-0.61
2024-12-29 15:20:59,819,842,907,867,810,1.30,-9.86,2.37,-0.59,0.31,-0.66
2024-12-29 15:20:59,819,842,905,865,811,0.01,-9.59,2.71,0.78,-0.67,1.85
2024-12-29 15:20:59,818,842,905,865,810,-2.10,-8.92,3.49,-0.38,0.68,-1.03
2024-12-29 15:21:00,809,842,909,865,811,0.90,-10.20,1.92,-0.25,0.41,-0.71
2024-12-29 15:21:00,817,844,906,866,812,-0.17,-9.17,3.03,0.97,-0.55,1.84
2024-12-29 15:21:00,820,843,907,867,811,-1.47,-9.35,3.88,-0.22,0.09,-0.27
2024-12-29 15:21:00,808,842,905,866,810,-1.55,-9.43,3.68,-0.05,0.05,0.01
2024-12-29 15:21:00,817,842,906,866,812,-1.34,-9.35,3.53,-0.02,0.02,0.00
2024-12-29 15:21:00,816,841,907,866,811,-1.21,-9.29,3.56,0.01,0.04,0.00
2024-12-29 15:21:01,817,842,906,865,812,-1.89,-9.05,3.77,-0.31,0.94,-0.86
2024-12-29 15:21:01,819,843,904,867,810,2.68,-9.15,1.61,-0.48,0.41,-0.50
2024-12-29 15:21:01,809,842,905,868,811,0.79,-9.69,1.94,0.72,-1.19,1.98
2024-12-29 15:21:01,815,842,906,868,813,-2.52,-9.49,3.68,-0.15,0.25,-0.40
2024-12-29 15:21:01,819,843,907,868,809,1.58,-10.22,2.17,-0.97,0.41,-1.30
2024-12-29 15:21:02,819,842,906,866,810,1.89,-9.99,1.59,0.51,-1.39,1.61
2024-12-29 15:21:02,809,842,907,867,812,-4.02,-9.71,3.67,-0.18,-0.04,0.18
2024-12-29 15:21:02,817,843,907,866,811,0.78,-10.34,0.85,-0.94,0.64,-1.00
2024-12-29 15:21:02,821,842,907,868,810,1.58,-10.16,0.46,0.58,-0.81,0.72
2024-12-29 15:21:02,816,843,907,869,813,-3.30,-10.00,2.88,-0.12,-0.50,0.21
2024-12-29 15:21:02,817,841,904,869,814,-1.44,-9.58,1.81,0.00,0.07,0.02
2024-12-29 15:21:03,815,841,906,867,815,-1.75,-9.56,1.92,-0.07,0.05,-0.07
2024-12-29 15:21:03,824,842,905,865,812,-2.29,-9.40,2.22,-0.04,0.26,-0.19
2024-12-29 15:21:03,810,842,905,869,811,-0.96,-9.84,1.75,-0.88,0.53,-0.91
2024-12-29 15:21:03,819,844,904,867,811,3.32,-9.63,-0.41,-0.03,0.12,-0.70
2024-12-29 15:21:03,823,842,908,867,813,-0.99,-9.77,1.59,1.23,-1.07,2.29
2024-12-29 15:21:04,815,841,905,868,814,-1.30,-9.30,1.88,-0.22,0.84,-0.50
2024-12-29 15:21:04,817,842,903,868,809,1.88,-10.37,1.13,-0.28,0.42,-1.10
2024-12-29 15:21:04,820,844,905,866,810,0.55,-9.61,1.81,0.80,-1.10,2.33
2024-12-29 15:21:04,820,841,903,868,812,-2.94,-9.06,2.74,-0.15,0.59,-0.56
2024-12-29 15:21:04,813,841,903,868,810,1.69,-9.95,1.26,-0.33,0.94,-1.14
2024-12-29 15:21:05,808,844,904,869,809,1.39,-9.69,1.40,0.49,-1.31,2.25
2024-12-29 15:21:05,818,842,904,868,811,-3.08,-9.80,2.62,-0.28,0.15,-0.25
2024-12-29 15:21:05,819,843,903,868,812,-1.95,-9.41,2.04,0.01,0.02,0.03
2024-12-29 15:21:05,824,842,907,868,811,-1.67,-9.67,1.82,-0.09,0.06,-0.02
2024-12-29 15:21:05,811,842,905,868,812,-1.30,-9.65,2.23,-0.06,0.12,0.05
2024-12-29 15:21:05,815,842,905,869,812,-2.08,-9.74,1.84,-0.12,0.37,-0.02
2024-12-29 15:21:06,823,843,905,871,811,1.48,-9.69,-0.01,-0.57,0.48,-0.77
2024-12-29 15:21:06,816,842,908,870,812,-1.75,-9.20,1.24,0.89,-1.07,1.32
2024-12-29 15:21:06,814,840,908,869,813,-2.68,-9.99,2.37,-0.30,0.37,-0.47
2024-12-29 15:21:06,818,839,907,868,810,-0.92,-9.53,1.28,-0.58,0.55,-0.65
2024-12-29 15:21:06,825,845,906,870,812,0.52,-9.38,0.82,0.70,-0.75,1.02
2024-12-29 15:21:07,820,843,906,868,812,-3.60,-9.82,2.21,-0.66,0.76,-0.98
2024-12-29 15:21:07,808,843,906,867,810,-0.17,-9.67,0.39,-0.29,0.45,-0.27
2024-12-29 15:21:07,819,843,905,868,810,0.34,-10.12,1.41,0.75,-0.83,1.05
2024-12-29 15:21:07,831,843,907,871,810,-2.71,-9.60,1.94,-0.16,0.00,-0.36
2024-12-29 15:21:07,812,843,905,868,813,-1.59,-9.66,1.80,0.03,0.03,0.10
2024-12-29 15:21:08,813,841,904,871,811,-1.31,-9.82,1.87,-0.15,0.10,0.00
2024-12-29 15:21:08,818,841,904,871,812,-2.57,-9.63,1.43,-0.44,0.47,-0.19
2024-12-29 15:21:08,825,842,904,871,811,-0.67,-9.44,0.11,-0.16,0.69,-0.58
2024-12-29 15:21:08,814,844,906,870,811,2.02,-9.96,1.34,0.13,-0.97,1.44
2024-12-29 15:21:08,811,841,906,871,813,-4.52,-9.28,1.83,-0.10,0.42,-0.29
2024-12-29 15:21:08,818,842,904,872,812,-0.52,-9.99,0.94,-0.10,0.15,-0.10
2024-12-29 15:21:09,825,842,910,866,813,-1.55,-9.48,1.78,-0.12,-0.48,0.48
2024-12-29 15:21:09,813,841,904,870,812,-3.35,-9.10,1.78,0.25,0.04,-0.01
2024-12-29 15:21:09,820,842,910,867,811,0.45,-10.13,1.58,-0.36,1.09,-1.44
2024-12-29 15:21:09,823,843,904,871,811,1.55,-9.62,0.46,0.27,-0.93,1.02
2024-12-29 15:21:09,825,841,906,871,813,-3.31,-9.56,1.96,-0.05,-0.32,0.04
2024-12-29 15:21:10,813,842,905,871,812,-1.36,-9.47,1.64,0.02,0.03,0.03
2024-12-29 15:21:10,815,842,903,869,813,-1.56,-9.74,2.01,0.03,0.04,-0.07
2024-12-29 15:21:10,816,841,904,871,813,-2.20,-9.82,2.15,-0.00,0.28,-0.03
2024-12-29 15:21:10,817,843,906,869,813,-0.51,-10.01,1.45,-0.19,0.39,-0.47
2024-12-29 15:21:10,814,841,905,871,816,-1.54,-9.52,1.93,0.29,-0.49,0.86
2024-12-29 15:21:11,816,842,905,870,814,-3.34,-9.35,1.33,-0.20,0.44,-0.18
2024-12-29 15:21:11,820,841,907,870,812,-0.54,-9.94,1.47,-0.05,0.38,-0.17
2024-12-29 15:21:11,819,844,904,871,817,-0.50,-9.33,1.35,-0.02,-0.71,0.26
2024-12-29 15:21:11,816,843,907,870,814,-4.49,-9.31,2.37,0.19,-0.09,0.17
2024-12-29 15:21:11,818,842,903,870,812,0.36,-10.04,1.71,-0.71,1.14,-1.68
2024-12-29 15:21:11,825,843,906,869,814,1.20,-9.85,1.08,0.59,-1.02,1.64
2024-12-29 15:21:12,821,839,906,870,815,-2.83,-9.41,1.75,-0.14,-0.02,-0.19
2024-12-29 15:21:12,820,842,905,869,816,-2.40,-9.84,2.02,-0.05,0.28,-0.09
2024-12-29 15:21:12,821,842,907,871,816,-0.73,-9.67,1.46,-0.12,0.24,-0.12
2024-12-29 15:21:12,822,843,904,870,816,0.46,-9.71,0.96,-0.09,-0.57,0.08
2024-12-29 15:21:12,813,841,904,869,816,-3.21,-9.07,2.37,0.34,-0.74,0.89
2024-12-29 15:21:13,815,842,903,870,817,-2.18,-9.44,2.55,0.03,0.15,-0.22
2024-12-29 15:21:13,819,842,906,869,816,-2.31,-9.57,2.31,-0.01,0.17,-0.09
2024-12-29 15:21:13,822,842,907,867,815,-3.10,-10.01,2.16,-0.47,1.49,-1.97
2024-12-29 15:21:13,822,841,907,869,815,3.32,-9.31,1.32,0.14,-0.82,1.14
2024-12-29 15:21:13,821,840,906,868,816,-4.96,-9.69,2.55,-0.25,0.27,0.08
2024-12-29 15:21:13,822,841,904,868,815,0.53,-9.86,1.77,-0.17,0.68,-0.73
2024-12-29 15:21:14,823,844,906,869,813,1.87,-9.53,1.35,-0.02,-0.81,0.38
2024-12-29 15:21:14,814,842,906,870,816,-4.50,-9.89,1.88,-0.14,0.02,0.11
2024-12-29 15:21:14,816,842,907,872,817,-1.10,-9.54,1.55,0.05,0.63,-0.30
2024-12-29 15:21:14,821,843,904,867,814,2.20,-9.89,1.58,-0.10,-0.37,-0.20
2024-12-29 15:21:14,824,842,904,869,817,-5.18,-8.46,3.14,0.17,-0.91,0.77
2024-12-29 15:21:15,813,842,904,869,817,-1.65,-9.50,2.19,0.02,0.21,-0.19
2024-12-29 15:21:15,815,842,905,870,816,-2.14,-9.64,2.04,-0.06,0.06,-0.03
2024-12-29 15:21:15,819,842,905,868,818,-2.55,-9.21,2.14,0.04,0.12,-0.04
2024-12-29 15:21:15,828,841,902,870,816,-2.07,-9.75,2.40,-0.17,1.03,-1.01
2024-12-29 15:21:15,815,841,907,869,815,2.64,-9.73,2.26,-0.25,-0.52,0.31
2024-12-29 15:21:16,821,842,905,869,818,-4.42,-9.27,3.01,0.28,-0.39,0.41
2024-12-29 15:21:16,819,841,905,870,815,-1.06,-9.81,2.07,-0.08,0.72,-0.85
2024-12-29 15:21:16,821,841,903,868,815,0.74,-9.62,1.47,-0.04,-0.63,0.51
2024-12-29 15:21:16,813,841,906,869,816,-3.87,-9.49,2.55,0.06,0.03,0.15
2024-12-29 15:21:16,812,841,904,869,814,-0.27,-9.81,2.20,-0.24,0.47,-0.48
2024-12-29 15:21:16,819,841,906,867,814,-0.88,-9.51,2.63,0.43,-0.15,0.56
2024-12-29 15:21:17,819,841,901,870,815,-2.77,-9.43,2.89,0.07,-0.20,0.34
2024-12-29 15:21:17,822,841,903,869,816,-1.54,-9.36,2.59,-0.04,0.09,-0.03
2024-12-29 15:21:17,807,840,906,870,816,-1.84,-9.60,2.39,-0.05,0.03,-0.00
2024-12-29 15:21:17,821,842,904,869,816,-2.32,-9.43,2.39,-0.12,0.45,-0.22
2024-12-29 15:21:17,823,841,904,869,814,1.97,-9.48,2.21,-0.07,0.34,-1.31
2024-12-29 15:21:18,812,841,904,868,816,-1.36,-8.97,2.52,0.52,-0.65,2.83
2024-12-29 15:21:18,818,842,905,867,814,-2.30,-9.22,1.91,-0.76,0.76,-1.11
2024-12-29 15:21:18,823,842,906,868,813,0.83,-9.90,1.24,-0.02,0.48,-0.75
2024-12-29 15:21:18,823,843,907,865,814,0.35,-9.48,2.05,0.22,-0.82,2.06
2024-12-29 15:21:18,820,841,902,870,816,-3.48,-9.43,1.28,-0.39,0.91,-1.17
2024-12-29 15:21:19,817,842,904,868,815,2.37,-9.50,1.68,0.03,0.13,-0.38
2024-12-29 15:21:19,816,842,903,869,816,-1.60,-9.11,2.09,0.33,-0.81,1.63
2024-12-29 15:21:19,819,841,903,869,814,-1.48,-9.52,1.97,-0.16,0.15,-0.34
2024-12-29 15:21:19,820,839,904,871,815,-1.53,-9.92,1.86,-0.03,-0.00,-0.13
2024-12-29 15:21:19,818,843,902,870,815,-1.73,-9.57,1.95,0.08,0.25,-0.10
2024-12-29 15:21:19,820,841,906,869,813,-1.97,-9.84,2.28,-0.04,0.77,-0.88
2024-12-29 15:21:20,828,842,905,869,812,2.24,-9.59,0.96,-0.34,0.41,-0.65
2024-12-29 15:21:20,816,844,903,868,814,1.32,-9.75,2.02,0.56,-1.63,2.72
2024-12-29 15:21:20,814,841,904,868,815,-3.87,-8.90,1.94,-0.61,1.13,-1.11
2024-12-29 15:21:20,818,843,907,864,814,2.27,-9.81,1.32,-0.31,0.28,-0.40
2024-12-29 15:21:20,822,840,904,869,816,-2.59,-8.94,2.47,1.02,-0.79,1.73
2024-12-29 15:21:21,822,841,900,871,813,-1.75,-9.80,1.78,-0.77,1.00,-1.39
2024-12-29 15:21:21,808,842,903,872,812,1.74,-9.60,1.10,-0.10,0.39,-0.53
2024-12-29 15:21:21,819,840,902,869,815,-0.46,-9.38,1.73,0.77,-0.73,2.14
2024-12-29 15:21:21,820,841,901,871,816,-2.28,-9.54,2.56,-0.17,0.13,-0.36
2024-12-29 15:21:21,819,840,901,870,814,-1.88,-9.69,2.34,0.01,0.01,0.03
2024-12-29 15:21:22,813,840,901,872,814,-1.55,-9.56,2.18,-0.02,0.00,0.04
2024-12-29 15:21:22,815,842,901,871,814,-1.61,-9.56,2.24,-0.05,0.14,-0.10
2024-12-29 15:21:22,822,842,900,871,813,-2.20,-9.75,1.01,-0.44,0.97,-1.57
2024-12-29 15:21:22,818,841,901,869,814,2.44,-9.70,0.85,0.28,-0.72,1.02
2024-12-29 15:21:22,812,841,902,870,817,-3.91,-9.75,3.50,0.05,-0.36,0.23
2024-12-29 15:21:22,816,841,900,870,815,-0.64,-9.66,1.81,-0.34,0.85,-1.01
2024-12-29 15:21:23,822,847,902,869,815,1.46,-10.02,1.32,0.35,-0.61,0.70
2024-12-29 15:21:23,824,847,903,866,814,-4.24,-9.69,3.04,-0.23,0.05,-0.07
2024-12-29 15:21:23,813,849,902,870,815,-0.68,-9.67,2.42,-0.09,0.22,-0.07
2024-12-29 15:21:23,820,854,899,871,815,-0.97,-10.04,2.06,0.03,-0.01,-0.13
2024-12-29 15:21:23,824,850,902,871,814,-2.80,-9.09,2.97,0.19,-0.16,0.82
2024-12-29 15:21:24,813,848,901,869,816,0.38,-9.64,1.71,-0.08,0.15,-0.34
2024-12-29 15:21:24,816,848,900,871,814,-1.51,-9.73,1.96,-0.02,-0.05,-0.08
2024-12-29 15:21:24,822,848,902,870,815,-0.91,-9.70,2.07,-0.01,0.04,-0.03
2024-12-29 15:21:24,815,849,907,865,815,-1.56,-10.03,2.21,-0.41,0.75,-1.03
2024-12-29 15:21:24,819,849,901,869,811,2.00,-9.86,0.89,-0.12,-0.25,0.20
2024-12-29 15:21:24,820,852,902,872,815,-3.88,-8.62,3.50,0.63,-0.23,1.31
2024-12-29 15:21:25,823,850,902,868,812,-0.23,-9.78,1.97,-0.81,1.00,-1.67
2024-12-29 15:21:25,815,848,901,871,812,2.06,-9.81,0.40,-0.20,-0.09,0.18
2024-12-29 15:21:25,818,849,902,869,814,-0.22,-9.89,1.36,0.83,-1.18,1.24
2024-12-29 15:21:25,822,847,900,871,815,-3.86,-8.79,4.10,-0.16,0.29,-0.19
2024-12-29 15:21:25,826,845,902,870,813,0.91,-10.17,0.52,-0.73,0.91,-1.25
2024-12-29 15:21:26,814,845,902,871,814,1.37,-9.72,1.22,0.50,-1.28,1.65
2024-12-29 15:21:26,819,844,903,869,813,-3.45,-9.59,2.44,-0.28,-0.06,-0.34
2024-12-29 15:21:26,827,845,903,872,815,-1.90,-9.51,1.98,0.04,-0.05,0.11
2024-12-29 15:21:26,817,846,901,872,814,-1.54,-9.60,2.03,-0.07,0.02,-0.03
2024-12-29 15:21:26,818,847,903,870,813,-2.51,-9.45,2.46,0.01,0.46,-0.22
2024-12-29 15:21:27,823,855,902,872,812,1.43,-9.96,1.53,-0.36,0.35,-1.17
2024-12-29 15:21:27,827,854,900,870,813,1.96,-9.82,0.54,0.40,-0.90,0.58
2024-12-29 15:21:27,825,850,900,870,815,-3.72,-9.31,3.48,0.11,-0.54,0.25
2024-12-29 15:21:27,814,848,901,871,814,-2.28,-9.86,2.44,-0.94,1.48,-1.72
2024-12-29 15:21:27,819,849,900,871,813,3.31,-9.73,0.05,0.05,-0.69,0.50
2024-12-29 15:21:27,820,848,902,872,816,-3.54,-8.78,3.12,0.50,-0.71,0.58
2024-12-29 15:21:28,821,848,899,870,814,-1.80,-9.61,1.67,-0.69,0.89,-0.96
2024-12-29 15:21:28,816,848,898,872,813,1.53,-10.13,0.80,0.06,-0.22,-0.06
2024-12-29 15:21:28,823,848,899,873,815,-2.66,-9.30,2.49,0.45,-0.82,0.63
2024-12-29 15:21:28,820,847,899,872,814,-0.90,-9.80,2.08,-0.14,0.02,-0.10
2024-12-29 15:21:28,823,847,900,873,814,-1.81,-9.63,2.23,-0.10,0.04,-0.01
2024-12-29 15:21:29,812,845,899,874,814,-2.44,-9.60,1.51,-0.36,0.42,-0.32
2024-12-29 15:21:29,822,847,899,873,811,-0.11,-9.94,0.71,-0.05,0.65,-1.40
2024-12-29 15:21:29,826,847,900,872,814,2.59,-9.93,0.60,0.34,-1.19,1.95
2024-12-29 15:21:29,820,848,902,872,815,-3.76,-9.54,1.99,-0.39,-0.01,-0.07
2024-12-29 15:21:29,818,847,898,872,812,0.02,-10.12,0.82,-0.17,0.48,-0.90
2024-12-29 15:21:30,819,846,897,873,814,1.25,-10.01,0.63,0.48,-0.92,1.17
2024-12-29 15:21:30,824,848,898,874,815,-3.78,-8.60,3.32,0.16,0.16,0.12
2024-12-29 15:21:30,817,846,898,874,812,0.18,-9.92,1.06,-0.67,0.50,-1.07
2024-12-29 15:21:30,815,846,897,872,813,1.35,-10.29,1.03,0.55,-1.05,1.36
2024-12-29 15:21:30,818,847,899,873,814,-3.19,-8.68,3.11,0.25,-0.26,0.04
2024-12-29 15:21:30,820,847,900,873,814,-1.47,-9.70,2.17,-0.07,0.01,-0.02
2024-12-29 15:21:31,818,847,898,875,815,-1.53,-9.49,2.39,-0.08,-0.02,-0.01
2024-12-29 15:21:31,818,847,898,873,814,-2.86,-9.67,2.94,-0.38,0.86,-0.61
2024-12-29 15:21:31,822,845,901,871,812,1.48,-9.38,0.88,-0.30,0.57,-1.14
2024-12-29 15:21:31,820,847,901,872,813,3.66,-9.96,1.41,0.27,-1.47,1.41
2024-12-29 15:21:31,815,846,901,872,814,-3.61,-9.53,3.26,-0.03,-0.41,0.17
2024-12-29 15:21:32,822,847,900,874,814,-2.39,-9.93,1.54,-0.50,1.37,-1.44
2024-12-29 15:21:32,824,846,899,872,813,2.82,-9.74,1.26,0.07,-0.30,-0.03
2024-12-29 15:21:32,823,845,900,873,816,-3.09,-8.88,3.05,0.55,-0.90,1.06
2024-12-29 15:21:32,814,846,900,872,813,-1.49,-10.12,1.87,-0.48,0.97,-1.10
2024-12-29 15:21:32,821,846,898,875,812,1.39,-9.79,1.40,-0.10,0.06,-0.39
2024-12-29 15:21:33,821,847,899,874,815,-1.57,-9.32,2.46,0.69,-0.70,1.86
2024-12-29 15:21:33,821,846,900,871,815,-2.24,-9.22,2.13,-0.20,0.08,-0.29
2024-12-29 15:21:33,808,848,901,873,815,-2.11,-9.55,2.50,-0.09,0.03,-0.04
2024-12-29 15:21:33,819,846,899,873,815,-1.99,-9.54,2.47,-0.02,-0.00,0.01
2024-12-29 15:21:33,820,848,898,873,812,-3.22,-9.00,2.64,-0.13,1.24,-0.61
2024-12-29 15:21:33,817,848,898,871,814,3.73,-9.12,2.15,-0.15,1.09,-1.09
2024-12-29 15:21:34,818,846,900,874,816,-0.39,-9.27,2.76,0.57,-1.30,2.79
2024-12-29 15:21:34,823,845,898,872,816,-3.16,-9.05,2.28,-0.67,1.03,-1.34
2024-12-29 15:21:34,820,847,897,874,812,0.60,-9.99,1.08,-0.21,0.43,-0.49
2024-12-29 15:21:34,814,845,896,874,813,1.07,-9.70,1.70,0.20,-1.75,1.97
2024-12-29 15:21:34,814,845,899,873,816,-3.65,-9.21,1.89,-0.32,0.40,-0.37
2024-12-29 15:21:35,824,846,900,874,813,-0.28,-10.16,1.42,-0.08,0.92,-1.38
2024-12-29 15:21:35,819,845,899,873,812,2.64,-10.12,1.72,-0.06,-0.93,0.96
2024-12-29 15:21:35,820,844,897,873,816,-4.00,-9.08,3.07,-0.14,-0.45,0.12
2024-12-29 15:21:35,819,845,899,874,815,-1.38,-9.73,2.27,-0.08,0.17,-0.04
2024-12-29 15:21:35,819,845,898,874,814,-1.50,-9.65,2.08,-0.06,0.08,-0.01
2024-12-29 15:21:36,813,845,900,873,815,-1.69,-9.61,2.13,0.02,0.02,-0.05
2024-12-29 15:21:36,813,847,897,872,814,-2.89,-9.25,2.43,-0.12,0.83,-0.21
2024-12-29 15:21:36,830,847,898,873,811,3.84,-9.66,1.72,-0.16,0.69,-1.03
2024-12-29 15:21:36,816,844,900,872,814,-0.44,-9.70,2.14,0.65,-1.50,2.76
2024-12-29 15:21:36,805,846,900,874,814,-3.05,-8.63,2.61,-0.31,0.86,-0.62
2024-12-29 15:21:36,821,846,901,871,812,0.89,-9.85,1.06,-0.10,0.92,-1.19
2024-12-29 15:21:37,828,845,901,870,813,1.32,-9.92,1.98,0.37,-1.30,2.11
2024-12-29 15:21:37,823,846,901,872,815,-4.19,-8.94,2.72,-0.20,0.09,-0.04
2024-12-29 15:21:37,817,845,900,872,812,0.22,-10.04,1.64,-0.56,0.94,-1.78
2024-12-29 15:21:37,821,845,900,870,813,1.77,-10.24,1.72,0.24,-0.63,0.65
2024-12-29 15:21:37,825,843,901,873,815,-3.99,-8.59,3.05,0.20,-1.14,0.72
2024-12-29 15:21:38,819,843,900,871,815,-1.28,-9.74,2.34,-0.18,0.30,-0.18
2024-12-29 15:21:38,810,844,899,872,814,-2.09,-9.53,2.42,-0.04,0.03,-0.05
2024-12-29 15:21:38,821,843,906,867,815,-2.19,-9.42,2.30,-0.01,0.01,0.00
2024-12-29 15:21:38,825,845,906,866,814,-3.84,-9.63,2.64,0.23,1.43,-1.04
2024-12-29 15:21:38,820,846,907,864,812,3.32,-9.09,2.36,-0.86,0.52,-0.92
2024-12-29 15:21:38,810,843,900,874,814,-0.24,-9.39,2.04,0.69,-1.77,2.89
2024-12-29 15:21:39,815,845,898,873,818,-2.97,-8.88,2.77,-0.11,0.82,-0.57
2024-12-29 15:21:39,828,846,901,870,812,1.85,-10.27,1.85,-0.60,0.50,-0.84
2024-12-29 15:21:39,812,843,900,871,814,-1.02,-9.29,2.06,0.54,-1.03,1.73
2024-12-29 15:21:39,815,843,901,873,817,-3.23,-9.46,2.58,-0.00,0.56,-0.49
2024-12-29 15:21:39,821,843,899,870,813,0.36,-10.10,2.15,-0.55,0.47,-0.61
2024-12-29 15:21:40,824,845,899,871,814,0.61,-9.90,1.50,0.19,-1.08,1.37
2024-12-29 15:21:40,816,846,906,865,815,-3.79,-9.24,2.49,-0.05,-0.09,-0.07
2024-12-29 15:21:40,818,846,905,868,813,-1.78,-9.54,2.25,-0.03,0.05,0.07
2024-12-29 15:21:40,823,844,908,865,814,-1.86,-9.42,2.38,-0.04,-0.01,-0.03
2024-12-29 15:21:40,811,845,908,865,814,-2.84,-9.29,2.76,0.29,0.28,-0.10
2024-12-29 15:21:41,820,847,904,869,814,0.79,-9.45,3.81,0.15,1.11,-1.88
2024-12-29 15:21:41,817,845,905,868,812,2.28,-9.88,3.03,-0.70,-1.94,1.96
2024-12-29 15:21:41,821,842,902,869,813,-6.06,-8.87,2.40,0.05,0.15,0.04
2024-12-29 15:21:41,825,846,903,871,812,0.50,-9.72,2.38,-0.29,1.06,-1.22
2024-12-29 15:21:41,819,844,900,870,813,1.71,-10.38,1.95,0.19,-1.54,1.19
2024-12-29 15:21:41,812,844,901,870,816,-4.64,-9.65,3.63,-0.53,-0.51,-0.02
2024-12-29 15:21:42,823,845,902,869,812,-0.66,-9.53,1.74,-0.08,1.71,-1.77
2024-12-29 15:21:42,819,843,904,868,813,2.20,-10.30,2.28,0.30,-1.75,1.64
2024-12-29 15:21:42,813,844,906,868,815,-4.62,-9.17,3.81,-0.23,-0.03,-0.01
2024-12-29 15:21:42,817,845,904,868,815,-1.96,-9.50,2.86,0.02,0.14,-0.05
2024-12-29 15:21:42,827,843,903,869,814,-1.63,-9.46,2.89,-0.07,0.10,-0.06
2024-12-29 15:21:43,814,845,906,868,813,-1.82,-9.46,3.24,0.04,0.10,0.04
2024-12-29 15:21:43,818,845,901,868,812,2.89,-9.53,0.81,-0.67,0.89,-1.32
2024-12-29 15:21:43,822,845,907,864,813,1.76,-10.53,0.77,0.69,-1.36,1.25
2024-12-29 15:21:43,822,845,903,869,815,-5.17,-9.11,4.41,-0.05,-0.27,0.26
2024-12-29 15:21:43,824,845,900,871,813,-0.09,-9.56,2.04,-0.71,0.90,-1.26
2024-12-29 15:21:44,810,845,901,870,812,2.04,-10.44,1.02,0.36,-1.51,0.84
2024-12-29 15:21:44,818,846,903,866,813,-5.22,-9.43,4.87,-0.15,-0.01,-0.01
2024-12-29 15:21:44,822,846,907,863,811,-0.03,-9.96,2.17,-0.74,1.28,-1.41
2024-12-29 15:21:44,814,847,905,865,810,2.30,-10.25,1.72,0.37,-0.74,0.50
2024-12-29 15:21:44,817,843,905,867,813,-4.45,-9.11,4.65,-0.00,-0.67,0.30
2024-12-29 15:21:44,820,844,902,867,812,-0.88,-9.39,3.22,-0.13,0.19,-0.10
2024-12-29 15:21:45,813,844,900,869,813,-1.41,-9.46,3.19,-0.10,0.02,0.01
2024-12-29 15:21:45,808,846,900,867,812,-2.24,-9.17,3.34,-0.96,1.55,-1.83
2024-12-29 15:21:45,824,847,901,869,810,3.66,-9.11,1.41,-0.07,0.42,-0.48
2024-12-29 15:21:45,831,850,905,869,812,0.48,-6.94,3.33,2.79,-1.90,2.71
2024-12-29 15:21:45,822,848,903,869,813,-3.10,-8.49,4.24,-0.98,1.02,-0.92
2024-12-29 15:21:46,816,848,902,868,812,1.21,-10.07,1.41,-1.05,0.42,-0.96
2024-12-29 15:21:46,816,846,907,866,811,1.33,-9.95,1.94,1.06,-1.49,2.05
2024-12-29 15:21:46,822,848,903,868,812,-4.43,-9.02,3.60,-0.67,0.78,-0.67
2024-12-29 15:21:46,823,848,901,870,811,1.23,-9.94,0.54,-0.75,0.70,-0.84
2024-12-29 15:21:46,814,847,902,870,813,0.67,-9.13,2.11,1.97,-1.10,2.69
2024-12-29 15:21:47,813,847,909,864,813,-1.87,-9.22,3.59,-0.38,0.08,-0.35
2024-12-29 15:21:47,821,847,902,867,812,-1.81,-9.30,3.28,0.02,0.00,0.01
2024-12-29 15:21:47,822,847,900,870,812,-1.47,-9.43,3.12,-0.03,0.04,0.02
2024-12-29 15:21:47,822,847,900,870,812,-3.43,-9.41,3.67,-0.60,1.43,-1.33
2024-12-29 15:21:47,811,848,906,865,811,3.22,-8.99,1.12,-0.16,-0.00,0.01
2024-12-29 15:21:47,818,847,905,867,814,-2.94,-7.81,4.11,1.16,-1.13,1.62
2024-12-29 15:21:48,822,846,905,865,812,-1.17,-9.44,3.21,-1.24,1.23,-1.64
2024-12-29 15:21:48,821,848,903,866,812,1.84,-9.38,1.21,0.05,0.08,-0.49
2024-12-29 15:21:48,816,846,902,869,813,-1.12,-8.46,3.20,1.57,-1.45,2.21
2024-12-29 15:21:48,818,846,902,868,812,-1.77,-9.45,3.16,-1.37,1.40,-1.85
2024-12-29 15:21:48,825,846,903,866,811,2.65,-9.46,0.95,0.06,-0.12,-0.12
2024-12-29 15:21:49,827,846,901,870,816,-3.89,-8.34,4.60,0.82,-0.96,0.87
2024-12-29 15:21:49,818,845,902,870,816,-0.58,-9.31,2.87,-0.15,0.12,-0.13
2024-12-29 15:21:49,819,847,902,870,815,-1.43,-9.55,3.50,-0.07,0.03,-0.08
2024-12-29 15:21:49,823,847,902,869,815,-1.95,-9.19,3.85,-0.05,0.33,-0.03
2024-12-29 15:21:49,824,846,900,868,811,3.55,-9.73,0.74,-0.92,0.83,-1.81
2024-12-29 15:21:49,815,846,906,866,814,1.66,-9.93,1.58,1.51,-1.55,2.69
2024-12-29 15:21:50,816,846,902,870,816,-3.67,-8.86,3.60,-0.61,0.74,-0.55
2024-12-29 15:21:50,822,847,899,868,811,2.07,-9.31,0.66,-0.40,0.58,-0.75
2024-12-29 15:21:50,828,843,902,869,814,-0.23,-9.81,2.35,1.42,-1.57,2.14
2024-12-29 15:21:50,818,846,899,869,811,-3.37,-9.70,3.04,-1.26,1.13,-1.52
2024-12-29 15:21:50,822,847,901,868,811,1.96,-9.39,0.58,0.02,0.29,-0.51
2024-12-29 15:21:51,820,847,903,868,813,-2.78,-8.48,4.67,0.97,-1.11,1.34
2024-12-29 15:21:51,823,847,903,866,815,-0.33,-9.45,3.33,-0.34,0.19,-0.31
2024-12-29 15:21:51,819,845,903,867,815,-1.34,-9.44,3.68,-0.06,0.06,-0.10
2024-12-29 15:21:51,815,844,902,869,814,-1.44,-8.84,3.82,-0.16,0.38,-0.14
2024-12-29 15:21:51,824,846,901,870,812,3.84,-10.15,-0.32,-0.95,0.50,-1.21
2024-12-29 15:21:52,816,847,900,870,810,0.95,-10.87,0.75,0.74,-0.89,0.67
2024-12-29 15:21:52,807,846,902,872,813,-3.53,-9.00,4.74,0.41,-0.71,0.66
2024-12-29 15:21:52,820,847,901,870,811,0.87,-9.47,2.38,-1.12,0.91,-1.95
2024-12-29 15:21:52,825,846,898,869,812,1.80,-10.38,1.45,0.56,-1.15,1.02
2024-12-29 15:21:52,821,846,901,871,813,-5.39,-9.51,4.33,-0.08,0.10,0.22
2024-12-29 15:21:52,817,849,900,867,812,1.68,-9.91,1.71,-0.54,1.25,-1.66
2024-12-29 15:21:53,818,848,900,871,814,1.36,-9.41,2.10,1.46,-1.51,2.66
2024-12-29 15:21:53,817,849,899,870,815,-1.79,-9.22,3.04,-0.54,0.07,-0.49
2024-12-29 15:21:53,821,850,898,871,813,-1.86,-9.43,3.40,-0.04,0.04,-0.01
2024-12-29 15:21:53,816,847,900,872,815,-1.51,-9.45,3.08,0.03,0.15,-0.15
2024-12-29 15:21:53,812,847,904,870,811,-3.39,-9.33,3.05,-1.07,1.36,-1.32
2024-12-29 15:21:54,823,848,900,868,810,3.03,-9.84,1.12,0.07,0.55,-0.15
2024-12-29 15:21:54,824,846,901,868,813,-1.70,-8.77,3.41,1.08,-1.35,2.08
2024-12-29 15:21:54,822,846,899,868,810,-1.06,-9.86,2.53,-0.87,1.12,-1.75
2024-12-29 15:21:54,817,846,900,868,810,0.94,-9.70,0.79,-0.11,0.48,-0.45
2024-12-29 15:21:54,821,847,902,870,813,1.74,-9.39,2.10,1.14,-1.66,2.47
2024-12-29 15:21:55,822,846,901,868,815,-1.61,-8.87,2.50,-1.00,1.09,-1.20
2024-12-29 15:21:55,830,847,900,868,811,1.15,-9.95,1.06,-0.12,0.26,-0.62
2024-12-29 15:21:55,819,846,901,870,813,-0.01,-9.72,2.66,0.76,-1.16,1.98
2024-12-29 15:21:55,808,845,900,870,814,-2.06,-9.48,2.36,-0.18,-0.01,-0.31
2024-12-29 15:21:55,825,845,898,871,813,-1.90,-9.55,2.38,-0.09,0.04,-0.06
2024-12-29 15:21:55,819,845,900,868,812,-1.58,-9.74,2.45,0.01,0.03,-0.05
2024-12-29 15:21:56,816,845,901,870,812,-0.72,-9.38,2.48,-0.24,1.20,-1.52
2024-12-29 15:21:56,825,846,899,868,811,2.17,-10.19,1.38,0.08,-0.34,0.12
2024-12-29 15:21:56,827,846,900,870,813,-3.01,-8.95,3.13,0.23,-0.92,1.08
2024-12-29 15:21:56,823,846,901,869,811,-2.28,-10.15,2.23,-0.76,1.70,-2.24
