Timestamp,Flex1,Flex2,Flex3,Flex4,Flex5,AccelX,AccelY,AccelZ,GyroX,GyroY,GyroZ
2024-12-29 15:15:32,790,784,820,793,770,1.08,-0.75,10.64,-0.04,0.02,-0.01
2024-12-29 15:15:32,791,786,821,794,770,1.06,-0.73,10.60,-0.04,0.02,-0.01
2024-12-29 15:15:32,789,784,819,793,770,1.05,-0.72,10.61,-0.04,0.03,-0.01
2024-12-29 15:15:32,790,784,818,795,770,1.08,-0.72,10.63,-0.03,0.03,-0.01
2024-12-29 15:15:32,791,786,820,795,770,1.08,-0.75,10.66,-0.03,0.02,-0.01
2024-12-29 15:15:32,789,786,818,793,769,1.05,-0.74,10.64,-0.04,0.03,-0.01
2024-12-29 15:15:32,789,784,820,794,770,1.12,-0.71,10.66,-0.03,0.02,-0.02
2024-12-29 15:15:32,788,785,817,794,771,1.06,-0.74,10.62,-0.03,0.01,-0.01
2024-12-29 15:15:32,790,785,820,794,770,1.06,-0.73,10.60,-0.04,0.01,-0.00
2024-12-29 15:15:32,790,786,821,794,771,1.01,-0.75,10.68,-0.04,0.02,-0.01
2024-12-29 15:15:32,789,786,820,794,769,1.13,-0.76,10.63,-0.04,0.01,-0.01
2024-12-29 15:15:32,788,785,821,794,770,1.13,-0.71,10.61,-0.03,0.01,-0.01
2024-12-29 15:15:32,790,786,820,795,771,1.05,-0.78,10.65,-0.03,0.02,-0.02
2024-12-29 15:15:32,789,784,821,793,770,1.08,-0.76,10.64,-0.04,0.03,-0.01
2024-12-29 15:15:32,790,785,821,793,770,1.06,-0.77,10.63,-0.04,0.02,-0.01
2024-12-29 15:15:32,788,787,820,794,771,1.03,-0.78,10.63,-0.04,0.03,-0.01
2024-12-29 15:15:32,789,784,819,793,771,1.04,-0.77,10.64,-0.04,0.03,-0.01
2024-12-29 15:15:32,790,786,820,793,770,1.13,-0.75,10.60,-0.04,0.01,-0.01
2024-12-29 15:15:32,789,785,820,794,770,1.08,-0.78,10.63,-0.04,0.02,-0.00
2024-12-29 15:15:32,789,783,820,794,769,1.05,-0.75,10.64,-0.03,0.02,-0.01
2024-12-29 15:15:32,789,786,819,793,770,1.07,-0.77,10.63,-0.03,0.03,-0.02
2024-12-29 15:15:32,790,785,821,793,770,1.07,-0.75,10.56,-0.02,0.03,-0.03
2024-12-29 15:15:33,790,784,819,793,770,1.13,-0.71,10.62,-0.02,0.03,-0.03
2024-12-29 15:15:33,790,785,821,794,770,1.04,-0.64,10.61,-0.02,0.03,-0.01
2024-12-29 15:15:33,787,784,818,794,771,1.08,-0.68,10.63,-0.03,0.01,-0.01
2024-12-29 15:15:33,791,784,818,794,770,0.97,-0.69,10.61,-0.03,0.02,-0.01
2024-12-29 15:15:33,790,785,818,795,770,1.11,-0.66,10.66,-0.01,0.02,-0.01
2024-12-29 15:15:34,789,784,817,793,770,1.19,-0.64,10.72,-0.01,0.03,-0.02
2024-12-29 15:15:34,788,786,817,793,770,0.74,-0.47,10.95,-0.00,-0.05,-0.05
2024-12-29 15:15:34,789,785,838,799,770,1.78,-1.61,10.83,-0.76,0.04,0.18
2024-12-29 15:15:34,789,778,878,825,772,2.05,-2.72,10.18,-1.35,-0.68,0.40
2024-12-29 15:15:34,790,777,888,832,779,2.50,-5.09,8.66,-0.65,0.12,0.34
2024-12-29 15:15:35,792,778,890,837,780,2.50,-5.65,9.01,-0.92,-0.82,0.53
2024-12-29 15:15:35,789,777,905,844,782,3.11,-7.21,6.64,-1.02,-0.77,0.39
2024-12-29 15:15:35,791,777,901,840,784,3.10,-7.67,5.84,-0.78,-0.33,0.31
2024-12-29 15:15:35,789,777,901,842,789,2.94,-8.66,4.59,-0.30,-0.31,0.26
2024-12-29 15:15:35,790,777,901,848,791,2.72,-9.39,4.39,-0.46,-0.04,0.50
2024-12-29 15:15:35,790,778,906,850,792,1.56,-9.27,3.08,-0.60,-0.31,0.74
2024-12-29 15:15:36,790,778,903,849,790,-0.28,-9.68,1.60,-0.43,-0.28,0.76
2024-12-29 15:15:36,790,776,905,853,792,-0.66,-9.82,1.59,-0.13,-0.12,0.44
2024-12-29 15:15:36,790,779,900,847,791,-1.56,-9.66,1.52,0.12,-0.05,0.16
2024-12-29 15:15:36,788,775,900,849,789,-1.47,-9.82,1.85,-0.09,-0.02,0.01
2024-12-29 15:15:36,790,776,900,848,791,-1.92,-9.43,1.75,-0.11,0.06,-0.07
2024-12-29 15:15:37,789,777,899,848,789,-0.59,-9.48,1.78,0.52,-0.35,-0.57
2024-12-29 15:15:37,789,776,897,844,788,1.01,-9.97,3.91,0.78,-0.31,-0.26
2024-12-29 15:15:37,789,776,896,843,787,0.90,-9.25,5.10,0.58,-0.46,0.14
2024-12-29 15:15:37,789,775,896,845,787,0.33,-8.68,5.31,0.13,-0.03,0.25
2024-12-29 15:15:37,788,775,895,844,786,0.87,-8.68,5.60,-0.03,0.02,-0.01
2024-12-29 15:15:38,788,775,895,844,786,0.42,-8.74,5.37,-0.09,0.02,0.01
2024-12-29 15:15:38,789,777,894,843,788,0.57,-8.84,5.94,-0.46,0.09,-0.39
2024-12-29 15:15:38,789,776,893,842,786,0.75,-9.43,3.64,-0.50,0.37,0.23
2024-12-29 15:15:38,788,776,898,843,786,-0.18,-9.66,3.24,-0.52,0.29,0.51
2024-12-29 15:15:38,790,775,895,841,787,-1.49,-9.34,2.49,-0.27,0.08,0.43
2024-12-29 15:15:38,789,777,894,842,787,-1.90,-9.49,1.78,-0.14,0.10,0.22
2024-12-29 15:15:39,789,776,894,843,786,-2.18,-9.44,2.21,-0.05,0.00,-0.00
2024-12-29 15:15:39,789,776,897,842,787,-2.20,-9.39,2.16,-0.07,0.02,-0.10
2024-12-29 15:15:39,787,776,893,842,786,-1.61,-9.11,1.96,0.39,-0.33,-0.65
2024-12-29 15:15:39,790,777,893,842,786,0.94,-9.58,3.52,0.90,-0.47,-0.73
2024-12-29 15:15:39,789,775,895,841,786,0.72,-9.49,5.37,0.48,-0.30,-0.04
2024-12-29 15:15:40,788,776,891,839,785,1.18,-8.75,5.85,-0.14,-0.06,0.14
2024-12-29 15:15:40,788,776,892,841,785,0.49,-8.75,5.44,-0.04,-0.07,0.02
2024-12-29 15:15:40,789,776,892,841,783,0.57,-8.78,5.36,-0.03,0.07,-0.03
2024-12-29 15:15:40,791,775,891,839,784,1.49,-9.12,6.01,-0.64,0.23,-0.34
2024-12-29 15:15:40,788,776,891,839,785,0.94,-9.07,3.70,-0.37,0.31,0.19
2024-12-29 15:15:40,789,777,893,837,784,-0.00,-9.99,3.34,-0.72,0.28,0.48
2024-12-29 15:15:41,789,776,892,837,785,-1.76,-9.49,1.58,-0.29,0.12,0.50
2024-12-29 15:15:41,790,776,891,839,784,-2.34,-9.39,1.67,0.02,0.05,0.13
2024-12-29 15:15:41,789,773,891,837,782,-1.74,-9.68,2.09,0.04,0.05,-0.04
2024-12-29 15:15:41,788,773,890,837,783,-2.30,-9.32,1.79,-0.14,-0.01,-0.21
2024-12-29 15:15:41,789,776,891,837,784,-0.06,-9.83,2.64,0.48,-0.21,-0.54
2024-12-29 15:15:42,789,774,890,837,783,-0.12,-9.64,3.25,0.25,-0.23,-0.38
2024-12-29 15:15:42,788,774,892,837,784,1.26,-9.39,4.31,0.62,-0.46,-0.25
2024-12-29 15:15:42,790,776,892,837,783,1.24,-9.40,5.29,0.10,-0.15,-0.00
2024-12-29 15:15:42,787,775,890,838,783,0.90,-8.97,5.04,-0.07,-0.01,0.02
2024-12-29 15:15:42,788,774,891,837,783,1.33,-8.99,4.82,0.02,-0.01,0.03
2024-12-29 15:15:43,790,776,892,836,783,0.99,-8.91,4.81,-0.05,0.02,-0.01
2024-12-29 15:15:43,790,775,890,838,783,1.65,-9.37,5.64,-0.42,0.41,-0.21
2024-12-29 15:15:43,788,774,889,837,784,0.81,-9.37,3.91,-0.53,0.47,0.31
2024-12-29 15:15:43,791,774,890,837,784,-0.35,-9.59,2.75,-0.51,0.30,0.59
2024-12-29 15:15:43,789,774,892,836,784,-1.59,-9.32,2.15,-0.20,0.11,0.39
2024-12-29 15:15:43,789,774,891,838,784,-2.32,-9.45,2.11,0.08,0.03,0.02
2024-12-29 15:15:44,788,775,892,836,783,-2.09,-9.40,2.22,-0.07,0.05,-0.08
2024-12-29 15:15:44,786,775,891,837,783,-1.23,-9.65,2.16,0.31,-0.14,-0.45
2024-12-29 15:15:44,787,775,892,836,784,-0.35,-9.93,2.90,0.36,-0.19,-0.49
2024-12-29 15:15:44,790,775,890,837,785,0.85,-9.45,4.66,0.76,-0.54,-0.29
2024-12-29 15:15:44,788,774,888,837,783,1.49,-9.11,5.78,0.19,-0.33,-0.11
2024-12-29 15:15:45,791,774,890,837,785,1.47,-8.68,5.55,0.03,-0.01,0.07
2024-12-29 15:15:45,787,774,891,836,784,1.56,-8.50,5.58,-0.05,0.05,-0.01
2024-12-29 15:15:45,789,774,889,836,783,1.40,-8.71,5.45,-0.07,0.12,-0.03
2024-12-29 15:15:45,789,774,890,837,783,1.42,-8.94,5.43,-0.34,0.33,-0.13
2024-12-29 15:15:45,788,773,890,837,783,1.36,-9.48,4.60,-0.66,0.46,0.18
2024-12-29 15:15:45,788,773,889,837,783,0.10,-9.60,2.89,-0.70,0.37,0.45
2024-12-29 15:15:46,790,775,890,838,783,-1.55,-9.49,1.81,-0.34,0.23,0.46
2024-12-29 15:15:46,790,775,891,838,786,-1.55,-9.69,1.74,-0.02,0.11,0.23
2024-12-29 15:15:46,787,774,890,837,783,-1.87,-9.55,2.27,0.11,0.06,0.02
2024-12-29 15:15:46,789,772,889,837,783,-2.21,-9.40,2.08,-0.03,0.06,0.03
2024-12-29 15:15:46,789,774,889,836,783,-2.69,-8.82,0.93,0.12,-0.33,-0.69
2024-12-29 15:15:47,791,774,891,838,785,-0.12,-9.71,3.01,0.49,-0.54,-0.64
2024-12-29 15:15:47,788,774,890,838,783,1.60,-9.62,5.06,0.53,-0.62,-0.18
2024-12-29 15:15:47,787,775,888,837,782,1.35,-9.03,4.77,0.12,-0.21,0.05
2024-12-29 15:15:47,789,774,889,836,783,1.31,-8.83,5.08,0.16,-0.24,-0.03
2024-12-29 15:15:47,788,775,890,836,783,1.43,-8.90,5.43,0.11,-0.10,0.10
2024-12-29 15:15:48,789,774,890,836,783,1.71,-8.78,5.49,0.01,0.05,0.01
2024-12-29 15:15:48,789,774,889,836,783,1.32,-8.72,5.38,-0.34,0.31,-0.11
2024-12-29 15:15:48,789,774,888,836,781,2.37,-9.35,4.92,-0.53,0.58,-0.03
2024-12-29 15:15:48,786,775,889,837,784,0.49,-9.39,3.26,-0.58,0.86,0.44
2024-12-29 15:15:48,789,774,890,835,783,-0.30,-9.65,2.44,-0.49,0.41,0.71
2024-12-29 15:15:48,787,773,888,835,783,-1.76,-9.48,1.54,-0.21,0.27,0.49
2024-12-29 15:15:49,788,774,890,835,782,-2.07,-9.57,2.55,-0.01,0.07,0.10
2024-12-29 15:15:49,788,772,890,837,782,-1.90,-9.62,2.20,0.02,0.04,-0.06
2024-12-29 15:15:49,789,774,889,838,783,-2.28,-9.46,1.68,-0.10,-0.02,-0.15
2024-12-29 15:15:49,788,772,886,836,783,-1.25,-9.33,2.15,0.15,-0.11,-0.48
2024-12-29 15:15:49,789,774,889,837,783,0.06,-9.53,2.50,0.52,-0.80,-0.69
2024-12-29 15:15:50,788,774,891,837,782,1.43,-9.60,4.13,0.55,-0.60,-0.28
2024-12-29 15:15:50,789,774,887,837,783,2.72,-8.98,5.66,0.27,-0.49,-0.03
2024-12-29 15:15:50,788,775,890,836,783,1.87,-8.78,5.08,-0.05,0.06,0.19
2024-12-29 15:15:50,790,775,886,834,782,2.01,-8.77,5.09,-0.10,0.13,0.06
2024-12-29 15:15:50,789,773,888,836,784,1.85,-8.75,5.22,-0.10,0.15,-0.02
2024-12-29 15:15:50,789,775,889,835,783,2.13,-9.23,5.00,-0.60,0.30,-0.13
2024-12-29 15:15:51,788,773,888,835,782,1.59,-9.46,4.29,-0.31,0.30,0.19
2024-12-29 15:15:51,788,775,888,836,783,1.08,-9.46,3.64,-0.49,0.47,0.52
2024-12-29 15:15:51,790,774,889,837,784,-0.56,-9.37,2.70,-0.45,0.27,0.57
2024-12-29 15:15:51,790,773,889,837,784,-1.05,-9.67,2.43,-0.20,0.11,0.32
2024-12-29 15:15:51,786,772,887,835,783,-1.58,-9.44,2.60,0.09,0.05,-0.01
2024-12-29 15:15:52,790,773,887,835,782,-1.76,-9.41,2.58,-0.06,0.01,-0.07
2024-12-29 15:15:52,788,774,888,836,784,-1.42,-9.69,2.22,0.21,-0.09,-0.43
2024-12-29 15:15:52,787,774,889,837,782,0.41,-9.41,2.39,0.32,-0.44,-0.72
2024-12-29 15:15:52,788,773,886,836,782,1.04,-9.76,4.32,0.49,-0.19,-0.28
2024-12-29 15:15:52,790,773,887,837,782,2.62,-9.17,5.20,0.27,-0.06,0.14
2024-12-29 15:15:53,788,775,888,836,782,1.56,-8.75,4.69,0.09,-0.15,0.07
2024-12-29 15:15:53,786,773,890,836,782,2.10,-9.02,5.17,-0.02,-0.02,0.02
2024-12-29 15:15:53,787,774,888,836,783,1.81,-8.82,4.95,-0.09,0.20,0.02
2024-12-29 15:15:53,788,774,888,835,783,2.34,-9.10,5.14,-0.39,0.17,-0.12
2024-12-29 15:15:53,790,774,890,834,784,2.21,-9.24,4.36,-0.47,0.53,0.35
2024-12-29 15:15:53,788,773,888,837,782,-0.07,-9.49,2.37,-0.49,0.53,0.69
2024-12-29 15:15:54,788,774,889,836,783,-2.15,-9.72,2.04,-0.42,1.07,0.79
2024-12-29 15:15:54,788,773,887,835,782,-1.85,-9.41,1.86,-0.03,0.03,0.09
2024-12-29 15:15:54,789,774,887,835,782,-1.75,-9.49,2.20,-0.00,-0.02,-0.07
2024-12-29 15:15:54,787,775,888,835,783,-1.72,-9.30,1.45,0.15,-0.18,-0.48
2024-12-29 15:15:54,787,776,886,834,783,-0.34,-9.38,2.48,0.21,-0.28,-0.56
2024-12-29 15:15:55,790,775,889,835,782,0.70,-9.75,3.49,0.53,-0.55,-0.52
2024-12-29 15:15:55,790,777,888,835,782,1.82,-9.39,5.45,0.41,-0.37,-0.13
2024-12-29 15:15:55,787,774,886,834,783,1.36,-9.03,4.87,-0.04,-0.16,-0.08
2024-12-29 15:15:55,790,774,887,835,783,1.42,-8.81,4.80,-0.06,0.07,-0.01
2024-12-29 15:15:55,789,774,889,835,782,1.39,-8.85,5.06,-0.08,0.21,-0.07
2024-12-29 15:15:56,790,776,889,837,783,1.99,-9.26,4.92,-0.66,0.39,-0.12
2024-12-29 15:15:56,790,773,888,836,781,1.42,-9.58,3.21,-0.53,0.38,0.55
2024-12-29 15:15:56,786,774,889,836,784,-0.72,-9.56,2.16,-0.38,0.27,0.45
2024-12-29 15:15:56,790,775,888,835,783,-1.28,-9.67,1.93,-0.16,0.30,0.52
2024-12-29 15:15:56,789,776,888,835,783,-2.00,-9.48,1.88,0.02,0.15,0.17
2024-12-29 15:15:56,788,773,888,834,782,-2.07,-9.42,1.90,-0.05,0.01,-0.05
2024-12-29 15:15:57,791,772,888,833,783,-2.39,-9.07,1.23,-0.42,-0.25,-0.47
2024-12-29 15:15:57,789,774,889,834,782,-0.07,-9.73,2.26,0.26,-0.37,-0.76
2024-12-29 15:15:57,789,775,888,833,782,1.18,-9.71,3.40,0.81,-0.36,-0.49
2024-12-29 15:15:57,789,774,888,836,782,1.83,-9.37,4.73,0.22,-0.16,0.12
2024-12-29 15:15:57,788,773,889,835,782,1.41,-9.12,4.85,-0.06,-0.02,0.07
2024-12-29 15:15:58,787,773,890,835,782,1.49,-9.33,4.76,-0.01,-0.15,0.00
2024-12-29 15:15:58,789,774,888,835,782,1.31,-9.06,4.50,-0.07,-0.03,0.02
2024-12-29 15:15:58,789,775,890,836,782,1.88,-9.34,4.48,-0.21,0.22,-0.05
2024-12-29 15:15:58,789,775,890,834,782,1.53,-9.44,3.42,-0.58,0.45,0.09
2024-12-29 15:15:58,789,775,891,836,782,1.16,-10.17,3.29,-0.48,0.36,0.35
2024-12-29 15:15:58,789,774,887,834,782,-1.60,-9.45,1.62,-0.30,0.51,0.80
2024-12-29 15:15:59,790,775,889,835,783,-1.92,-9.31,1.51,0.00,0.12,0.24
2024-12-29 15:15:59,789,774,889,835,783,-2.20,-9.47,1.47,-0.03,0.10,0.00
2024-12-29 15:15:59,790,774,889,836,782,-2.25,-9.38,1.36,-0.13,-0.11,-0.36
2024-12-29 15:15:59,790,774,886,834,782,-0.42,-9.84,2.25,0.25,-0.21,-0.58
2024-12-29 15:15:59,789,774,888,836,782,1.09,-9.65,2.79,0.34,-0.33,-0.49
2024-12-29 15:16:00,787,774,887,835,782,1.84,-9.62,4.01,0.50,-0.53,-0.36
2024-12-29 15:16:00,789,774,887,835,782,2.41,-8.94,4.63,0.06,-0.11,0.15
2024-12-29 15:16:00,789,774,889,835,782,1.86,-9.11,4.37,-0.04,-0.00,0.01
2024-12-29 15:16:00,788,776,889,835,783,1.61,-8.98,4.47,-0.09,0.15,-0.07
2024-12-29 15:16:00,789,773,889,835,782,2.22,-9.39,4.21,-0.42,0.28,-0.01
2024-12-29 15:16:01,789,774,887,834,782,1.87,-9.81,3.51,-0.64,0.62,0.56
2024-12-29 15:16:01,789,774,887,834,781,-0.73,-9.44,1.54,-0.30,0.29,0.42
2024-12-29 15:16:01,788,773,890,836,782,-1.34,-9.76,1.41,-0.25,0.20,0.43
2024-12-29 15:16:01,787,775,889,836,782,-1.95,-9.53,1.45,0.08,0.07,0.21
2024-12-29 15:16:01,787,775,889,833,783,-2.06,-9.59,1.77,0.07,0.03,0.02
2024-12-29 15:16:01,788,775,889,834,783,-2.11,-9.33,1.87,0.00,0.00,-0.07
2024-12-29 15:16:02,788,773,887,835,782,-1.32,-9.35,1.65,0.28,-0.25,-0.75
2024-12-29 15:16:02,789,773,887,834,782,0.57,-9.71,2.55,0.30,-0.46,-0.85
2024-12-29 15:16:02,787,775,889,834,782,1.49,-9.98,3.32,0.50,-0.21,-0.30
2024-12-29 15:16:02,788,773,888,835,781,2.11,-9.41,4.73,0.33,-0.26,0.26
2024-12-29 15:16:02,787,773,888,836,782,0.88,-9.20,4.79,0.00,-0.11,0.12
2024-12-29 15:16:03,790,773,887,835,782,1.40,-9.23,4.74,-0.01,-0.11,-0.01
2024-12-29 15:16:03,790,776,891,835,781,1.82,-9.08,4.66,0.04,-0.41,-0.12
2024-12-29 15:16:03,789,772,887,834,781,1.27,-8.98,5.06,-0.07,0.12,-0.04
2024-12-29 15:16:03,789,773,889,834,781,1.39,-9.54,4.46,-0.44,0.66,-0.04
2024-12-29 15:16:03,789,774,888,834,783,1.23,-9.65,3.54,-0.59,0.37,0.24
2024-12-29 15:16:03,789,775,887,833,782,-0.27,-9.57,1.85,-0.37,0.57,0.70
2024-12-29 15:16:04,788,774,888,835,782,-1.54,-9.56,1.77,-0.18,0.31,0.38
2024-12-29 15:16:04,789,774,887,833,781,-2.01,-9.57,1.98,0.05,0.00,0.06
2024-12-29 15:16:04,788,774,889,834,781,-1.72,-9.59,2.18,0.01,-0.02,-0.05
2024-12-29 15:16:04,789,774,888,835,781,-2.25,-9.45,1.84,-0.22,0.03,-0.23
2024-12-29 15:16:04,788,774,886,834,781,-0.82,-9.62,2.13,0.31,-0.27,-0.63
2024-12-29 15:16:05,790,774,888,834,782,0.96,-9.94,3.20,0.60,-0.44,-0.56
2024-12-29 15:16:05,788,774,889,835,781,1.59,-9.38,4.55,0.76,-0.19,-0.08
2024-12-29 15:16:05,789,776,886,833,782,1.87,-9.20,5.14,-0.02,-0.17,0.11
2024-12-29 15:16:05,787,775,886,834,781,1.49,-8.90,5.02,0.01,-0.05,0.13
2024-12-29 15:16:05,788,774,885,834,781,1.51,-8.96,5.10,-0.03,0.01,-0.00
2024-12-29 15:16:06,789,775,885,832,783,1.33,-9.00,5.01,-0.24,0.09,-0.14
2024-12-29 15:16:06,788,776,884,835,782,1.71,-9.19,4.61,-0.32,0.24,-0.04
2024-12-29 15:16:06,788,775,885,833,782,1.40,-9.60,4.15,-0.60,0.28,0.24
2024-12-29 15:16:06,788,775,885,833,782,0.17,-9.59,2.80,-0.32,0.29,0.62
2024-12-29 15:16:06,788,776,885,831,782,-0.94,-9.35,2.32,-0.16,0.21,0.59
2024-12-29 15:16:06,789,776,886,835,782,-1.35,-9.41,2.39,0.03,0.04,0.14
2024-12-29 15:16:07,789,773,887,833,782,-1.58,-9.55,2.56,0.06,0.10,-0.01
2024-12-29 15:16:07,787,772,884,835,782,-1.79,-9.35,2.78,-0.15,0.08,-0.06
2024-12-29 15:16:07,789,775,884,833,781,-1.17,-9.28,2.20,0.14,-0.22,-0.65
2024-12-29 15:16:07,788,778,886,835,783,1.04,-9.81,2.80,0.61,-0.60,-0.92
2024-12-29 15:16:07,789,775,885,833,781,1.84,-9.52,4.39,0.53,-0.39,-0.22
2024-12-29 15:16:08,790,774,886,833,781,1.87,-8.89,4.64,0.14,-0.28,0.09
2024-12-29 15:16:08,788,773,886,834,782,2.03,-8.81,5.20,0.07,-0.22,-0.03
2024-12-29 15:16:08,788,775,886,834,782,1.90,-8.79,4.87,0.01,0.02,-0.02
2024-12-29 15:16:08,790,773,883,834,781,1.76,-8.85,5.12,-0.23,0.18,-0.08
2024-12-29 15:16:08,788,774,884,833,782,2.01,-9.34,4.59,-0.53,0.42,0.07
2024-12-29 15:16:08,788,776,884,834,781,1.49,-9.68,3.55,-0.58,0.41,0.45
2024-12-29 15:16:09,787,774,887,833,782,-0.51,-9.48,2.35,-0.26,0.41,0.65
2024-12-29 15:16:09,789,776,885,834,782,-1.65,-9.63,2.21,-0.23,0.15,0.49
2024-12-29 15:16:09,788,774,884,832,782,-1.76,-9.30,2.48,0.05,-0.05,0.01
2024-12-29 15:16:09,788,772,883,834,782,-1.75,-9.51,2.55,-0.04,0.01,-0.03
2024-12-29 15:16:09,788,774,886,834,782,-2.29,-9.09,1.46,0.01,-0.46,-0.70
2024-12-29 15:16:10,789,776,886,832,782,0.94,-9.71,3.29,0.31,-0.40,-0.73
2024-12-29 15:16:10,788,775,884,834,780,1.31,-9.31,3.51,0.52,-0.30,-0.39
2024-12-29 15:16:10,787,774,886,833,782,1.68,-9.40,4.82,0.31,-0.30,-0.03
2024-12-29 15:16:10,788,774,885,834,781,1.76,-8.73,5.43,0.06,-0.15,0.14
2024-12-29 15:16:10,788,776,886,834,781,1.54,-8.93,5.20,-0.06,-0.00,0.00
2024-12-29 15:16:11,786,773,884,834,781,1.55,-8.71,5.29,-0.07,0.10,-0.05
2024-12-29 15:16:11,788,774,887,834,781,2.26,-9.15,5.10,-0.36,0.28,-0.03
2024-12-29 15:16:11,789,775,884,833,782,1.91,-9.22,4.25,-0.55,0.30,0.18
2024-12-29 15:16:11,789,775,885,833,781,0.25,-9.58,2.86,-0.43,0.37,0.57
2024-12-29 15:16:11,788,776,886,833,781,-0.75,-9.45,2.48,-0.16,0.23,0.37
2024-12-29 15:16:11,788,773,885,833,781,-0.94,-9.61,2.80,-0.21,0.14,0.19
2024-12-29 15:16:12,789,771,885,833,782,-1.56,-9.61,2.34,0.12,0.13,0.10
2024-12-29 15:16:12,789,773,885,834,782,-1.37,-9.50,2.85,-0.03,-0.00,-0.01
2024-12-29 15:16:12,788,772,884,833,781,-1.48,-9.33,2.14,0.08,-0.07,-0.41
2024-12-29 15:16:12,790,774,884,833,782,-0.16,-9.58,2.49,0.25,-0.30,-0.65
2024-12-29 15:16:12,788,775,885,832,780,1.38,-9.67,3.42,0.32,-0.21,-0.24
2024-12-29 15:16:13,789,774,883,834,781,2.40,-9.61,5.04,0.40,-0.28,-0.09
2024-12-29 15:16:13,788,772,885,832,780,1.51,-8.63,4.63,0.07,-0.26,-0.04
2024-12-29 15:16:13,788,774,886,834,781,1.76,-8.76,5.05,0.01,-0.23,-0.02
2024-12-29 15:16:13,789,773,885,834,782,1.80,-8.85,5.02,-0.04,0.05,-0.01
2024-12-29 15:16:13,789,773,886,835,780,1.87,-8.77,5.24,-0.22,0.26,-0.07
2024-12-29 15:16:13,790,773,884,831,781,2.20,-9.27,4.73,-0.34,0.49,0.04
2024-12-29 15:16:14,789,775,887,833,780,1.42,-9.45,3.43,-0.66,0.49,0.51
2024-12-29 15:16:14,787,774,885,833,782,-0.77,-9.50,2.44,-0.35,0.37,0.58
2024-12-29 15:16:14,790,775,885,831,781,-1.49,-9.45,2.11,-0.16,0.10,0.34
2024-12-29 15:16:14,788,774,884,832,781,-1.62,-9.39,2.90,0.06,0.04,0.03
2024-12-29 15:16:14,787,772,884,833,780,-1.51,-9.62,3.00,-0.10,0.03,-0.05
2024-12-29 15:16:15,788,774,885,833,781,-1.35,-9.52,1.94,0.11,-0.16,-0.44
2024-12-29 15:16:15,789,774,886,833,781,-0.38,-9.27,2.17,0.22,-0.31,-0.57
2024-12-29 15:16:15,788,776,885,833,781,1.84,-9.80,3.43,0.64,-0.59,-0.55
2024-12-29 15:16:15,787,775,884,832,781,2.74,-9.21,5.07,0.34,-0.37,0.02
2024-12-29 15:16:15,788,773,886,832,782,2.09,-8.85,5.43,0.05,-0.21,0.11
2024-12-29 15:16:16,790,774,884,833,780,2.38,-8.77,4.98,-0.02,-0.01,-0.03
2024-12-29 15:16:16,788,773,885,832,780,2.14,-8.82,4.93,-0.03,0.02,-0.01
2024-12-29 15:16:16,789,775,883,835,782,2.30,-8.73,5.17,-0.33,0.25,-0.05
2024-12-29 15:16:16,790,774,884,834,780,2.56,-9.73,4.59,-0.78,0.57,0.22
2024-12-29 15:16:16,790,774,885,832,781,0.77,-9.51,2.26,-0.51,0.54,0.63
2024-12-29 15:16:16,790,775,885,833,781,-0.73,-9.66,1.91,-0.24,0.32,0.58
2024-12-29 15:16:17,789,774,884,832,781,-1.73,-9.20,2.64,0.17,-0.04,0.08
2024-12-29 15:16:17,787,773,883,832,780,-1.54,-9.52,2.60,0.03,0.03,-0.04
2024-12-29 15:16:17,789,773,884,833,781,-1.85,-9.14,2.09,-0.19,0.01,-0.22
2024-12-29 15:16:17,787,773,883,832,781,-0.29,-9.65,2.72,0.24,-0.25,-0.68
2024-12-29 15:16:17,790,776,884,833,782,1.23,-9.37,2.88,0.58,-0.57,-0.61
2024-12-29 15:16:18,788,774,886,831,781,3.05,-9.27,5.71,0.60,-0.42,-0.26
2024-12-29 15:16:18,788,774,885,833,781,2.72,-8.71,5.21,0.06,-0.16,0.15
2024-12-29 15:16:18,788,773,886,831,782,2.20,-8.54,5.13,-0.10,-0.06,0.08
2024-12-29 15:16:18,789,774,883,831,780,2.84,-8.88,4.94,-0.05,0.03,0.00
2024-12-29 15:16:18,789,773,884,831,782,2.08,-8.78,4.79,-0.16,0.28,0.02
2024-12-29 15:16:19,789,775,885,833,781,2.07,-8.91,4.65,-0.00,0.09,0.04
2024-12-29 15:16:19,790,775,884,833,781,2.04,-8.87,4.68,-0.01,0.05,-0.01
2024-12-29 15:16:19,789,774,886,831,781,2.51,-9.10,5.29,-0.37,0.33,-0.10
2024-12-29 15:16:19,788,774,885,834,781,2.72,-9.51,3.64,-0.90,0.64,0.58
2024-12-29 15:16:19,789,774,883,834,781,-1.32,-9.47,1.78,-0.36,0.46,0.93
2024-12-29 15:16:19,789,773,884,832,781,-1.24,-9.37,2.56,0.01,0.17,0.35
2024-12-29 15:16:20,788,772,885,834,781,-1.50,-9.29,2.78,0.03,-0.03,-0.02
2024-12-29 15:16:20,788,773,884,832,781,-1.88,-9.07,2.54,-0.24,-0.04,-0.17
2024-12-29 15:16:20,788,776,884,832,781,-0.19,-9.60,2.46,0.42,-0.39,-0.86
2024-12-29 15:16:20,788,775,884,834,780,1.74,-9.86,3.73,0.55,-0.56,-0.79
2024-12-29 15:16:20,788,775,882,832,781,2.42,-8.88,4.15,0.47,-0.44,-0.43
2024-12-29 15:16:21,788,774,883,831,782,3.64,-8.94,5.22,0.12,-0.18,-0.01
2024-12-29 15:16:21,788,774,885,833,782,2.66,-8.87,5.11,-0.16,-0.01,0.37
2024-12-29 15:16:21,788,774,885,833,781,1.78,-8.71,4.60,-0.12,0.11,0.03
2024-12-29 15:16:21,789,773,884,832,781,2.12,-9.18,4.50,-0.08,0.06,0.05
2024-12-29 15:16:21,788,776,884,834,782,2.03,-8.97,4.62,-0.03,0.04,-0.05
2024-12-29 15:16:21,790,775,885,832,782,2.51,-9.19,5.25,-0.39,0.29,-0.49
2024-12-29 15:16:22,789,774,884,832,781,3.09,-9.67,3.18,-0.79,0.63,0.60
2024-12-29 15:16:22,788,775,882,830,780,-0.57,-9.37,1.71,-0.41,0.50,0.99
2024-12-29 15:16:22,788,773,883,832,781,-1.07,-9.43,2.37,0.19,0.03,0.19
2024-12-29 15:16:22,789,773,884,834,780,-1.09,-9.54,2.59,0.04,0.01,-0.04
2024-12-29 15:16:22,788,774,885,831,783,-1.76,-9.38,2.55,-0.02,0.15,-0.04
2024-12-29 15:16:23,789,773,884,833,782,-1.36,-9.63,2.64,-0.02,0.09,0.05
2024-12-29 15:16:23,788,773,884,832,781,-1.43,-9.52,2.59,-0.05,0.08,-0.03
2024-12-29 15:16:23,787,774,884,831,781,-2.10,-9.57,1.70,-0.16,-0.10,-0.40
2024-12-29 15:16:23,789,774,884,833,780,0.65,-9.73,2.71,0.41,-0.65,-0.72
2024-12-29 15:16:23,788,773,885,833,781,2.27,-9.61,4.57,0.54,-0.59,-0.41
2024-12-29 15:16:24,788,774,886,831,781,2.47,-8.97,4.86,0.23,-0.33,-0.29
2024-12-29 15:16:24,790,774,885,830,782,2.93,-8.96,5.02,-0.16,-0.02,0.29
2024-12-29 15:16:24,788,772,884,833,780,2.12,-8.84,4.64,-0.08,0.04,-0.00
2024-12-29 15:16:24,786,773,885,832,780,2.11,-8.90,4.72,-0.05,0.04,-0.01
2024-12-29 15:16:24,789,774,883,832,782,2.20,-9.07,5.15,-0.26,0.24,-0.17
2024-12-29 15:16:24,791,774,885,832,781,2.44,-9.56,3.74,-0.52,0.54,0.20
2024-12-29 15:16:25,788,773,884,832,780,1.68,-9.84,3.22,-0.66,0.57,0.80
2024-12-29 15:16:25,787,773,882,833,780,-1.12,-9.50,1.22,-0.31,0.58,0.80
2024-12-29 15:16:25,789,773,882,832,782,-1.68,-9.66,2.43,-0.05,0.19,0.18
2024-12-29 15:16:25,787,772,884,834,781,-1.26,-9.85,2.26,0.00,0.03,-0.03
2024-12-29 15:16:25,790,772,882,832,781,-1.82,-9.26,1.86,-0.20,-0.06,-0.20
2024-12-29 15:16:26,790,775,881,832,781,0.45,-9.97,2.35,0.43,-0.46,-0.95
2024-12-29 15:16:26,787,775,882,833,783,1.72,-9.76,2.60,0.42,-0.40,-0.65
2024-12-29 15:16:26,790,775,885,831,780,2.60,-9.25,4.31,0.45,-0.42,-0.05
2024-12-29 15:16:26,789,774,882,833,780,2.17,-9.17,4.81,0.05,-0.12,0.12
2024-12-29 15:16:26,787,773,882,832,780,2.16,-8.98,4.82,-0.02,-0.04,0.03
2024-12-29 15:16:26,788,771,883,831,781,2.24,-8.97,4.85,-0.02,0.03,-0.01
2024-12-29 15:16:27,788,774,885,832,781,2.04,-9.02,4.64,-0.02,0.04,-0.03
2024-12-29 15:16:27,788,774,884,833,781,2.23,-8.91,4.90,-0.26,0.28,-0.07
2024-12-29 15:16:27,789,773,882,832,781,2.49,-9.79,4.24,-0.68,0.71,0.31
2024-12-29 15:16:27,789,773,884,834,780,0.98,-9.72,2.23,-0.50,0.72,0.68
2024-12-29 15:16:27,787,773,885,832,782,-1.23,-9.56,1.94,-0.15,0.27,0.48
2024-12-29 15:16:28,790,772,883,833,780,-1.85,-9.61,1.81,-0.02,0.21,0.25
2024-12-29 15:16:28,790,772,883,832,781,-1.72,-9.49,2.26,0.09,0.03,-0.03
2024-12-29 15:16:28,787,772,885,830,780,-1.78,-9.34,1.97,-0.15,-0.01,-0.14
2024-12-29 15:16:28,788,774,884,832,781,0.22,-9.62,2.45,0.29,-0.53,-0.88
2024-12-29 15:16:28,788,773,883,832,780,1.54,-9.88,3.45,0.66,-0.36,-0.59
2024-12-29 15:16:29,788,773,881,831,781,2.52,-9.68,4.70,0.41,-0.41,-0.10
2024-12-29 15:16:29,790,772,883,832,781,1.96,-8.98,4.94,0.07,-0.23,0.15
2024-12-29 15:16:29,787,774,881,833,781,2.43,-9.05,4.46,-0.06,0.01,-0.01
2024-12-29 15:16:29,788,775,884,831,782,2.34,-9.12,4.74,-0.04,0.07,0.03
2024-12-29 15:16:29,788,773,882,831,779,1.83,-9.00,4.77,-0.20,0.32,-0.03
2024-12-29 15:16:29,789,774,882,833,780,2.59,-9.99,3.90,-0.71,0.50,0.23
2024-12-29 15:16:30,789,774,883,834,781,0.39,-9.70,1.93,-0.77,0.55,0.85
2024-12-29 15:16:30,788,773,883,832,781,-2.29,-9.10,1.65,0.05,0.50,0.66
2024-12-29 15:16:30,788,774,882,832,780,-1.54,-9.77,1.87,-0.02,0.02,0.04
2024-12-29 15:16:30,789,773,883,832,781,-1.63,-9.63,1.94,0.03,-0.05,-0.08
2024-12-29 15:16:30,788,773,882,832,780,-1.96,-9.09,1.41,-0.14,-0.02,-0.31
2024-12-29 15:16:31,789,774,882,833,781,-0.49,-10.15,2.37,0.04,-0.17,-0.74
2024-12-29 15:16:31,789,774,884,832,781,1.54,-9.82,2.63,0.40,-0.34,-0.56
2024-12-29 15:16:31,788,775,883,832,781,2.74,-9.67,4.81,0.59,-0.48,-0.04
2024-12-29 15:16:31,788,775,882,833,782,1.96,-9.09,3.85,-0.04,-0.07,0.13
2024-12-29 15:16:31,789,772,884,833,781,2.02,-9.11,4.39,-0.04,-0.02,0.03
2024-12-29 15:16:31,789,771,883,833,780,1.87,-9.08,4.41,-0.03,0.13,-0.02
2024-12-29 15:16:32,787,775,881,833,780,2.25,-9.15,4.61,-0.25,0.32,-0.02
2024-12-29 15:16:32,788,775,884,833,781,1.92,-9.71,3.83,-0.63,0.48,0.36
2024-12-29 15:16:32,789,773,883,834,781,1.25,-9.79,2.87,-0.44,0.38,0.44
2024-12-29 15:16:32,788,773,882,834,781,-1.29,-9.39,1.13,-0.32,0.31,0.76
2024-12-29 15:16:32,789,773,882,833,780,-1.38,-9.70,1.92,0.11,0.14,0.23
2024-12-29 15:16:33,788,772,884,834,780,-1.67,-9.61,2.41,-0.04,0.08,-0.03
2024-12-29 15:16:33,789,772,884,832,781,-1.55,-9.65,2.39,-0.03,0.02,-0.04
2024-12-29 15:16:33,790,774,884,832,781,-2.08,-9.03,2.13,-0.43,-0.10,-0.33
2024-12-29 15:16:33,787,774,882,832,782,0.29,-9.66,2.12,0.32,-0.46,-0.72
2024-12-29 15:16:33,789,775,882,832,780,1.53,-9.67,3.65,0.54,-0.47,-0.53
2024-12-29 15:16:34,788,774,882,831,781,2.49,-9.46,4.33,0.41,-0.35,-0.25
2024-12-29 15:16:34,788,773,881,833,780,2.42,-9.07,4.72,0.03,-0.08,0.18
2024-12-29 15:16:34,789,773,882,830,780,2.08,-8.87,4.30,0.05,-0.10,0.02
2024-12-29 15:16:34,787,773,884,830,779,2.20,-9.11,4.58,-0.04,0.02,-0.03
2024-12-29 15:16:34,789,774,883,833,780,2.21,-8.95,5.01,-0.16,0.17,-0.02
2024-12-29 15:16:34,788,773,882,832,780,2.32,-9.47,4.46,-0.46,0.50,-0.02
2024-12-29 15:16:35,788,773,881,832,779,1.86,-9.95,3.23,-0.72,0.41,0.57
2024-12-29 15:16:35,789,774,881,834,780,0.37,-9.61,2.18,-0.54,0.67,1.02
2024-12-29 15:16:35,788,776,882,834,780,-2.00,-9.24,1.27,0.08,0.34,0.37
2024-12-29 15:16:35,788,775,883,832,780,-1.75,-9.54,2.03,0.04,0.02,-0.03
2024-12-29 15:16:35,790,772,883,834,780,-1.95,-9.39,1.92,-0.13,0.06,-0.07
2024-12-29 15:16:36,790,774,883,833,781,-1.37,-9.50,1.82,-0.10,-0.46,-0.54
2024-12-29 15:16:36,789,775,885,831,780,-0.09,-9.61,2.22,0.21,-0.22,-0.55
2024-12-29 15:16:36,789,774,882,829,780,1.70,-9.60,3.11,0.74,-0.43,-0.61
2024-12-29 15:16:36,789,773,884,831,782,2.31,-9.22,5.38,0.42,-0.34,0.09
2024-12-29 15:16:36,789,772,884,832,780,1.81,-8.89,5.06,-0.00,-0.14,0.03
2024-12-29 15:16:37,789,773,884,833,781,1.76,-8.86,4.86,-0.04,-0.14,-0.01
2024-12-29 15:16:37,788,773,883,832,781,1.93,-8.91,4.95,-0.06,0.00,-0.03
2024-12-29 15:16:37,787,774,885,832,781,1.84,-8.76,5.03,-0.35,0.11,-0.16
2024-12-29 15:16:37,787,774,884,831,780,2.49,-9.77,4.22,-0.56,0.50,0.15
2024-12-29 15:16:37,790,775,883,832,780,1.35,-9.53,2.72,-0.76,0.66,0.70
2024-12-29 15:16:37,790,775,882,831,779,-0.40,-9.65,1.93,-0.33,0.34,0.67
2024-12-29 15:16:38,788,773,882,831,781,-1.80,-9.52,1.38,-0.05,0.23,0.39
2024-12-29 15:16:38,790,773,884,830,780,-1.64,-9.62,1.71,0.05,0.16,-0.01
2024-12-29 15:16:38,787,772,885,829,781,-2.09,-9.44,1.92,-0.03,0.03,-0.02
2024-12-29 15:16:38,790,774,884,830,780,-2.21,-9.39,1.37,0.01,-0.26,-0.57
2024-12-29 15:16:38,788,775,882,831,781,0.08,-9.62,2.49,0.50,-0.31,-0.77
2024-12-29 15:16:39,789,775,883,832,780,1.27,-9.78,3.79,0.37,-0.46,-0.41
2024-12-29 15:16:39,787,775,884,832,781,2.39,-9.01,4.77,0.53,-0.51,-0.19
2024-12-29 15:16:39,787,773,882,831,781,2.57,-9.08,4.95,-0.03,-0.00,0.22
2024-12-29 15:16:39,788,774,884,832,780,2.43,-8.85,4.76,-0.06,0.06,0.01
2024-12-29 15:16:39,789,774,882,831,780,2.47,-8.97,4.66,-0.05,0.02,-0.04
2024-12-29 15:16:39,789,774,882,832,781,2.32,-8.90,4.81,-0.23,0.21,-0.14
2024-12-29 15:16:40,788,775,881,832,780,2.64,-9.47,4.73,-0.36,0.45,0.03
2024-12-29 15:16:40,789,774,882,833,780,2.30,-9.68,3.01,-0.69,0.66,0.60
2024-12-29 15:16:40,788,774,880,833,781,-0.04,-9.81,2.19,-0.44,0.51,0.68
2024-12-29 15:16:40,788,773,883,832,781,-1.58,-9.64,1.45,-0.08,0.18,0.38
2024-12-29 15:16:40,791,774,882,833,782,-2.46,-9.41,1.92,0.14,0.21,0.15
2024-12-29 15:16:41,787,773,880,832,779,-1.97,-9.45,2.00,-0.03,0.00,-0.04
2024-12-29 15:16:41,787,773,881,832,780,-1.97,-9.24,1.85,-0.28,-0.10,-0.23
2024-12-29 15:16:41,788,775,881,832,780,0.06,-9.75,2.29,0.32,-0.59,-0.89
2024-12-29 15:16:41,789,775,883,831,780,1.70,-9.67,3.53,0.49,-0.53,-0.62
2024-12-29 15:16:41,788,774,884,833,781,1.96,-9.49,3.45,0.26,-0.40,-0.21
2024-12-29 15:16:42,789,774,883,834,781,2.73,-9.27,4.87,0.18,-0.18,0.05
2024-12-29 15:16:42,788,775,882,831,781,2.43,-9.03,4.52,0.01,-0.02,0.07
2024-12-29 15:16:42,789,773,882,833,780,2.06,-9.00,4.23,-0.03,0.02,0.01
2024-12-29 15:16:42,790,775,883,832,781,2.19,-8.92,4.52,-0.12,0.16,-0.07
2024-12-29 15:16:42,788,775,883,831,780,2.60,-9.68,4.33,-0.38,0.65,0.23
2024-12-29 15:16:42,790,776,884,832,781,1.99,-9.76,3.78,-0.50,0.52,0.36
2024-12-29 15:16:43,789,773,882,831,781,0.19,-9.55,1.85,-0.49,0.47,0.73
2024-12-29 15:16:43,788,775,883,832,781,-1.55,-9.46,1.72,-0.20,0.28,0.53
2024-12-29 15:16:43,789,774,883,833,781,-2.18,-9.10,2.15,0.14,0.10,0.17
2024-12-29 15:16:43,789,772,880,831,781,-2.09,-9.24,2.02,-0.11,0.06,-0.09
2024-12-29 15:16:43,788,777,881,834,780,-0.87,-9.57,1.62,0.26,-0.39,-0.81
2024-12-29 15:16:44,789,775,882,832,780,0.94,-9.81,2.75,0.35,-0.49,-0.72
2024-12-29 15:16:44,789,775,881,831,780,1.43,-9.64,2.91,0.33,-0.27,-0.31
2024-12-29 15:16:44,789,776,882,831,781,2.77,-9.63,4.34,0.32,-0.43,-0.17
2024-12-29 15:16:44,788,776,882,833,781,2.75,-9.23,4.26,0.11,-0.10,0.07
2024-12-29 15:16:44,788,772,883,832,781,2.63,-8.89,4.49,-0.06,0.04,0.02
2024-12-29 15:16:44,790,775,881,833,780,1.75,-9.19,4.17,-0.05,0.06,0.04
2024-12-29 15:16:45,790,774,884,832,780,1.90,-8.85,4.40,-0.11,0.18,-0.11
2024-12-29 15:16:45,788,775,882,832,781,2.72,-10.08,3.82,-0.58,0.61,0.18
2024-12-29 15:16:45,789,776,882,832,780,1.45,-9.81,2.61,-0.51,0.71,0.58
2024-12-29 15:16:45,787,774,881,832,780,-0.79,-9.65,1.80,-0.25,0.45,0.70
2024-12-29 15:16:45,788,776,882,832,782,-1.87,-9.47,1.68,-0.12,0.10,0.39
2024-12-29 15:16:46,787,773,884,831,781,-1.90,-9.43,1.82,-0.01,-0.01,-0.02
2024-12-29 15:16:46,788,773,883,833,780,-2.18,-9.13,1.93,-0.16,0.01,-0.17
2024-12-29 15:16:46,790,774,882,835,780,-0.90,-9.60,2.02,0.28,-0.36,-0.84
2024-12-29 15:16:46,788,774,881,831,779,0.71,-9.86,2.44,0.39,-0.50,-0.74
2024-12-29 15:16:46,790,778,882,834,781,2.25,-9.71,3.47,0.46,-0.69,-0.46
2024-12-29 15:16:47,787,776,882,832,782,2.33,-9.50,4.49,0.05,-0.29,0.34
2024-12-29 15:16:47,788,775,881,834,780,1.66,-8.98,4.22,0.06,-0.27,-0.00
2024-12-29 15:16:47,788,773,881,832,780,2.13,-9.09,4.66,-0.03,-0.07,-0.02
2024-12-29 15:16:47,788,774,884,832,780,2.03,-9.13,4.60,-0.04,0.02,-0.02
2024-12-29 15:16:47,790,773,883,832,781,2.23,-9.41,4.39,-0.47,0.60,-0.08
2024-12-29 15:16:47,788,774,883,833,780,1.17,-9.68,3.49,-0.60,0.87,0.37
2024-12-29 15:16:48,787,773,881,830,780,0.46,-9.82,1.71,-0.57,0.72,0.95
2024-12-29 15:16:48,788,772,881,832,780,-2.17,-9.31,1.15,0.00,0.45,0.63
2024-12-29 15:16:48,788,773,883,832,779,-2.39,-9.57,1.16,-0.09,0.12,0.12
2024-12-29 15:16:48,789,773,882,833,780,-2.32,-9.44,1.50,0.00,-0.04,-0.06
2024-12-29 15:16:48,788,776,882,832,781,-2.19,-9.28,1.24,0.02,-0.21,-0.50
2024-12-29 15:16:49,790,777,881,832,779,-0.65,-9.17,0.35,0.50,-0.71,-1.20
2024-12-29 15:16:49,787,780,882,834,781,1.70,-9.39,3.64,0.44,-0.98,-0.46
2024-12-29 15:16:49,788,778,882,832,781,2.45,-9.26,4.87,-0.04,-0.16,0.02
2024-12-29 15:16:49,787,777,882,832,781,1.46,-9.19,4.18,-0.04,0.05,0.11
2024-12-29 15:16:49,788,774,883,832,780,1.08,-9.16,4.26,-0.03,0.02,-0.01
2024-12-29 15:16:49,789,776,881,833,780,1.45,-9.09,4.50,-0.07,0.15,-0.05
2024-12-29 15:16:50,788,778,881,833,779,1.51,-9.42,4.17,-0.27,0.19,-0.12
2024-12-29 15:16:50,788,776,882,833,780,1.51,-9.67,3.93,-0.36,0.35,0.08
2024-12-29 15:16:50,788,777,882,833,780,0.74,-9.87,2.85,-0.44,0.41,0.41
2024-12-29 15:16:50,788,778,883,831,781,-0.14,-9.63,1.86,-0.26,0.16,0.39
2024-12-29 15:16:50,789,776,881,832,779,-1.42,-9.63,1.58,-0.20,0.19,0.45
2024-12-29 15:16:51,789,775,883,831,780,-1.82,-9.62,1.81,0.01,0.07,0.05
2024-12-29 15:16:51,789,773,881,832,781,-1.68,-9.69,1.88,-0.09,0.11,-0.02
2024-12-29 15:16:51,789,774,881,834,780,-1.88,-9.15,1.77,-0.25,0.07,-0.27
2024-12-29 15:16:51,789,777,883,832,780,0.21,-9.43,1.91,0.83,-0.50,-1.01
2024-12-29 15:16:51,790,779,883,831,780,1.16,-9.73,3.93,0.63,-0.57,-0.29
2024-12-29 15:16:52,788,776,881,833,779,0.88,-8.83,5.36,0.11,-0.23,0.17
2024-12-29 15:16:52,790,775,883,831,783,1.77,-9.22,4.55,0.16,-0.32,-0.04
2024-12-29 15:16:52,790,775,882,832,782,1.75,-9.08,4.77,-0.00,-0.30,-0.01
2024-12-29 15:16:52,789,774,883,832,781,1.76,-8.91,4.80,-0.07,0.04,-0.03
2024-12-29 15:16:52,787,774,880,831,780,2.05,-9.34,5.11,-0.61,0.64,-0.12
2024-12-29 15:16:52,788,774,881,831,780,1.36,-9.93,3.22,-0.71,0.86,0.61
2024-12-29 15:16:53,790,774,880,833,780,-0.99,-9.46,1.55,-0.56,0.30,0.68
2024-12-29 15:16:53,789,776,881,833,780,-2.19,-9.43,1.63,-0.08,0.13,0.22
2024-12-29 15:16:53,788,773,882,832,780,-2.03,-9.40,1.60,0.09,-0.04,-0.05
2024-12-29 15:16:53,789,773,883,833,780,-1.98,-9.35,1.82,-0.05,0.01,-0.05
2024-12-29 15:16:53,787,776,883,831,780,-1.96,-9.42,1.31,0.03,-0.22,-0.60
2024-12-29 15:16:54,789,777,880,831,781,1.00,-9.90,3.05,0.46,-0.44,-0.94
2024-12-29 15:16:54,787,779,881,832,780,2.08,-9.55,4.28,1.10,-0.24,-0.39
2024-12-29 15:16:54,787,776,879,832,780,1.91,-9.01,4.35,-0.02,-0.19,0.21
2024-12-29 15:16:54,790,775,880,833,779,1.80,-9.04,4.44,-0.07,-0.02,-0.00
2024-12-29 15:16:54,789,774,881,833,781,1.87,-9.11,4.51,-0.04,0.01,-0.03
2024-12-29 15:16:54,788,774,881,831,778,1.42,-8.91,4.45,-0.18,0.12,-0.08
2024-12-29 15:16:55,789,776,880,833,780,2.02,-9.86,4.30,-0.59,0.26,-0.12
2024-12-29 15:16:55,788,775,881,830,780,1.44,-9.76,3.01,-0.83,0.49,0.72
2024-12-29 15:16:55,788,776,881,833,781,-1.39,-9.31,1.32,-0.31,0.46,0.93
2024-12-29 15:16:55,790,774,881,832,780,-1.85,-9.35,1.99,-0.02,0.07,0.17
2024-12-29 15:16:55,789,774,882,832,781,-2.07,-9.38,1.67,-0.08,0.16,0.11
2024-12-29 15:16:56,789,774,882,833,781,-2.23,-9.14,1.35,-0.13,-0.21,-0.46
2024-12-29 15:16:56,788,777,881,831,779,0.10,-9.74,2.23,0.29,-0.34,-0.85
2024-12-29 15:16:56,788,777,880,832,781,1.95,-9.89,2.77,1.26,-0.79,-1.04
2024-12-29 15:16:56,791,776,882,833,779,2.71,-8.89,5.15,0.16,-0.19,0.19
2024-12-29 15:16:56,789,776,879,832,781,2.06,-9.05,4.79,-0.08,-0.03,0.15
2024-12-29 15:16:57,789,773,881,832,781,2.21,-9.03,4.90,-0.07,0.08,0.05
2024-12-29 15:16:57,790,775,881,832,780,1.93,-8.96,4.70,-0.04,0.04,-0.01
2024-12-29 15:16:57,789,776,880,832,779,1.95,-8.94,5.14,-0.60,0.61,-0.24
2024-12-29 15:16:57,788,776,882,832,780,1.84,-9.72,3.02,-0.99,0.90,0.81
2024-12-29 15:16:57,789,777,881,831,780,-0.03,-10.01,1.77,-0.52,0.37,0.55
2024-12-29 15:16:57,790,776,882,833,780,-1.51,-9.34,1.13,0.08,0.07,0.41
2024-12-29 15:16:58,790,774,880,830,780,-1.79,-9.48,1.64,0.00,0.06,0.02
2024-12-29 15:16:58,790,774,881,832,780,-2.05,-9.40,1.88,-0.16,0.02,-0.13
2024-12-29 15:16:58,789,777,879,831,782,-1.05,-9.49,0.71,0.73,-0.53,-1.13
2024-12-29 15:16:58,790,776,882,832,780,1.46,-10.18,3.00,0.63,-0.53,-0.67
2024-12-29 15:16:58,787,777,881,832,779,3.11,-9.08,4.93,0.66,-0.73,-0.11
2024-12-29 15:16:59,788,775,882,830,779,1.65,-8.89,4.33,-0.01,-0.12,0.23
2024-12-29 15:16:59,789,774,881,833,779,1.60,-9.01,4.65,-0.09,-0.05,0.00
2024-12-29 15:16:59,789,775,879,831,780,2.06,-9.08,4.65,-0.05,0.06,-0.05
2024-12-29 15:16:59,787,776,881,832,780,2.19,-8.77,4.57,-0.48,0.21,-0.19
2024-12-29 15:16:59,788,775,881,831,781,1.87,-9.71,3.30,-0.42,0.34,0.18
2024-12-29 15:17:00,788,776,880,830,780,1.30,-10.07,3.04,-0.35,0.46,0.53
2024-12-29 15:17:00,787,776,880,832,779,-0.51,-9.67,1.88,-0.30,0.42,0.66
2024-12-29 15:17:00,790,775,880,832,781,-2.14,-9.32,1.81,-0.10,0.19,0.35
2024-12-29 15:17:00,788,774,881,832,780,-2.23,-9.22,2.10,-0.03,0.06,-0.04
2024-12-29 15:17:00,789,775,881,831,780,-1.99,-9.00,1.62,-0.25,-0.10,-0.44
2024-12-29 15:17:00,788,777,880,832,780,-0.06,-9.43,2.36,0.47,-0.36,-0.80
2024-12-29 15:17:01,787,779,880,832,779,1.86,-9.79,3.53,0.83,-0.39,-0.57
2024-12-29 15:17:01,789,777,881,828,779,2.39,-9.12,4.76,0.40,-0.46,-0.09
2024-12-29 15:17:01,788,777,882,832,780,2.01,-8.95,4.94,0.08,-0.09,0.22
2024-12-29 15:17:01,789,775,881,831,780,1.94,-8.98,4.85,-0.03,0.03,0.03
2024-12-29 15:17:01,790,776,879,832,782,1.92,-8.98,4.79,-0.04,0.06,-0.05
2024-12-29 15:17:02,789,776,880,831,780,1.83,-8.87,5.08,-0.45,0.41,-0.20
2024-12-29 15:17:02,789,775,882,830,780,1.91,-9.68,3.86,-0.63,0.56,0.41
2024-12-29 15:17:02,791,776,881,830,779,0.01,-9.80,2.54,-0.55,0.52,0.85
2024-12-29 15:17:02,790,775,881,831,781,-1.75,-9.22,1.63,-0.15,0.16,0.35
2024-12-29 15:17:02,790,776,881,831,780,-2.47,-9.30,1.65,-0.03,0.10,0.10
2024-12-29 15:17:02,788,775,880,831,780,-2.34,-9.25,1.86,-0.06,0.04,-0.08
2024-12-29 15:17:03,789,777,882,830,780,-2.15,-9.49,1.32,0.08,-0.17,-0.64
2024-12-29 15:17:03,791,778,883,832,781,0.61,-10.08,2.31,0.63,-0.60,-0.92
2024-12-29 15:17:03,789,779,880,831,780,1.95,-9.76,4.91,0.54,-0.46,-0.05
2024-12-29 15:17:03,787,776,883,832,780,1.22,-8.69,4.21,-0.02,-0.24,-0.07
2024-12-29 15:17:03,789,775,883,831,781,1.91,-9.16,5.07,0.04,-0.12,0.05
2024-12-29 15:17:04,788,772,881,833,779,1.81,-9.01,4.66,0.02,-0.22,0.01
2024-12-29 15:17:04,788,772,882,830,782,1.93,-8.99,4.73,-0.06,0.03,0.00
2024-12-29 15:17:04,787,774,880,830,778,2.19,-9.01,4.89,-0.51,0.65,-0.10
2024-12-29 15:17:04,788,775,882,832,779,1.94,-9.85,3.56,-1.07,1.18,0.77
2024-12-29 15:17:04,790,774,882,832,781,-1.25,-9.47,0.98,-0.52,0.78,1.07
2024-12-29 15:17:05,790,773,880,831,781,-2.01,-9.48,1.27,0.01,0.04,0.32
2024-12-29 15:17:05,789,772,880,830,781,-2.08,-9.50,1.82,0.08,-0.04,0.01
2024-12-29 15:17:05,789,773,881,828,779,-2.36,-9.02,1.41,-0.09,-0.09,-0.19
2024-12-29 15:17:05,789,774,880,833,780,-0.76,-9.89,1.86,0.28,-0.34,-0.75
2024-12-29 15:17:05,789,775,879,832,779,0.98,-9.37,2.72,1.16,-0.51,-0.79
2024-12-29 15:17:05,787,776,882,831,781,1.64,-9.44,5.42,0.27,-0.39,0.12
2024-12-29 15:17:06,787,774,880,833,780,1.53,-8.94,4.74,-0.03,-0.05,0.10
2024-12-29 15:17:06,789,773,880,831,780,1.45,-9.05,4.59,-0.03,0.09,-0.00
2024-12-29 15:17:06,790,775,878,832,780,1.24,-8.98,4.78,-0.08,0.16,0.03
2024-12-29 15:17:06,788,774,879,830,779,1.38,-9.62,4.69,-0.39,0.39,-0.16
2024-12-29 15:17:06,789,776,879,831,780,1.23,-9.73,3.29,-0.91,0.43,0.42
2024-12-29 15:17:07,787,776,880,832,779,-1.04,-9.26,1.31,-0.49,0.39,0.86
2024-12-29 15:17:07,789,776,880,832,782,-1.85,-9.50,1.39,-0.14,0.16,0.38
2024-12-29 15:17:07,790,774,882,831,780,-2.09,-9.54,1.37,0.04,-0.01,0.00
2024-12-29 15:17:07,789,774,879,831,779,-2.04,-9.51,1.55,-0.01,0.07,-0.01
2024-12-29 15:17:07,789,774,882,830,781,-2.61,-9.12,0.96,-0.08,-0.04,-0.45
2024-12-29 15:17:07,788,776,880,831,780,-0.54,-9.59,2.20,0.87,0.07,-0.80
2024-12-29 15:17:08,788,777,881,830,779,0.91,-9.90,3.76,0.26,-0.19,0.09
2024-12-29 15:17:08,789,775,881,832,781,-0.43,-8.92,3.67,0.06,-0.14,-0.04
2024-12-29 15:17:08,791,775,880,831,779,0.76,-9.38,3.87,0.15,-0.32,-0.03
2024-12-29 15:17:08,788,774,881,832,779,1.06,-9.53,4.24,0.24,-0.75,-0.12
2024-12-29 15:17:08,789,772,883,832,780,2.18,-9.26,4.78,0.28,-0.72,-0.15
2024-12-29 15:17:09,791,771,881,832,781,2.15,-8.97,4.51,-0.04,0.02,-0.04
2024-12-29 15:17:09,790,774,883,831,781,1.92,-9.11,4.69,-0.59,0.97,-0.05
2024-12-29 15:17:09,788,775,880,831,779,1.18,-9.90,3.59,-0.62,0.85,0.48
2024-12-29 15:17:09,789,775,880,831,780,0.00,-9.62,1.96,-0.62,0.76,0.72
2024-12-29 15:17:09,788,776,881,830,781,-1.39,-9.60,1.28,-0.43,0.47,0.62
2024-12-29 15:17:10,789,776,881,830,780,-2.75,-9.30,1.30,0.05,0.24,0.25
2024-12-29 15:17:10,787,774,882,831,780,-2.17,-9.38,1.70,0.06,0.01,-0.02
2024-12-29 15:17:10,787,772,879,833,780,-2.27,-9.38,1.65,-0.05,0.00,-0.09
2024-12-29 15:17:10,789,774,879,831,781,-2.48,-9.40,0.61,0.32,-0.27,-0.74
2024-12-29 15:17:10,788,775,881,830,779,0.58,-9.94,2.76,0.73,-0.71,-0.91
2024-12-29 15:17:10,787,773,880,831,779,2.00,-8.80,6.17,0.82,-0.15,0.13
2024-12-29 15:17:11,786,772,878,830,780,1.51,-8.94,5.16,0.10,-0.32,0.18
2024-12-29 15:17:11,789,771,877,832,778,1.21,-8.73,5.47,-0.09,-0.14,0.04
2024-12-29 15:17:11,790,773,878,829,779,1.14,-8.73,5.26,-0.06,0.05,0.02
2024-12-29 15:17:11,789,773,879,831,780,1.02,-8.81,5.14,-0.10,0.07,-0.00
2024-12-29 15:17:11,789,772,879,831,779,1.13,-8.78,5.02,-0.16,0.08,-0.03
2024-12-29 15:17:12,789,774,876,829,779,0.99,-8.77,5.56,-0.23,0.18,-0.13
2024-12-29 15:17:12,791,774,879,831,779,1.29,-9.62,4.52,-0.80,0.44,0.11
2024-12-29 15:17:12,789,775,878,830,780,0.51,-9.60,2.95,-0.46,0.33,0.46
2024-12-29 15:17:12,791,775,879,831,780,-1.40,-9.40,1.67,-0.48,0.41,0.65
2024-12-29 15:17:12,789,773,877,833,778,-1.96,-9.35,1.76,-0.15,0.24,0.31
2024-12-29 15:17:12,788,773,878,831,780,-2.31,-9.52,1.98,-0.01,0.00,-0.02
2024-12-29 15:17:13,788,773,878,829,779,-2.26,-9.05,1.79,-0.22,-0.09,-0.22
2024-12-29 15:17:13,786,775,879,829,780,0.16,-9.74,2.07,0.75,-0.50,-1.03
2024-12-29 15:17:13,789,775,878,831,780,1.88,-9.96,4.71,0.85,-0.68,-0.45
2024-12-29 15:17:13,787,777,879,830,779,1.84,-9.25,5.54,0.10,-0.28,-0.13
2024-12-29 15:17:13,789,774,879,831,780,1.30,-8.88,5.42,-0.04,-0.11,0.21
2024-12-29 15:17:14,790,773,877,831,780,1.53,-8.99,4.92,-0.05,0.01,-0.02
2024-12-29 15:17:14,789,773,877,829,778,1.50,-9.01,4.88,-0.02,0.03,-0.02
2024-12-29 15:17:14,786,775,879,830,780,1.13,-8.70,5.59,-0.44,0.26,-0.21
2024-12-29 15:17:14,790,775,879,832,780,1.97,-9.51,3.34,-0.50,0.57,0.35
2024-12-29 15:17:14,788,775,877,830,780,0.30,-10.08,2.44,-0.54,0.57,0.61
2024-12-29 15:17:15,788,775,878,828,781,-1.34,-9.66,1.49,-0.29,0.27,0.68
2024-12-29 15:17:15,789,775,878,831,781,-2.29,-9.30,1.46,0.01,0.11,0.42
2024-12-29 15:17:15,789,775,879,830,781,-1.93,-9.46,1.74,-0.01,-0.08,-0.05
2024-12-29 15:17:15,790,773,879,831,779,-2.34,-9.15,1.80,-0.09,0.04,-0.15
2024-12-29 15:17:15,789,775,878,829,779,-1.22,-9.52,1.60,0.37,-0.31,-0.77
2024-12-29 15:17:15,789,776,879,832,779,0.87,-10.35,2.78,0.73,-0.50,-0.67
2024-12-29 15:17:16,788,776,878,831,779,1.64,-9.36,4.07,0.37,-0.50,-0.27
2024-12-29 15:17:16,786,774,877,830,781,1.86,-9.38,4.57,0.12,-0.27,0.12
2024-12-29 15:17:16,789,773,879,830,780,1.69,-9.15,4.81,-0.07,0.00,0.02
2024-12-29 15:17:16,786,774,879,830,780,1.75,-9.07,4.42,-0.04,0.05,-0.02
2024-12-29 15:17:16,788,775,879,832,780,1.94,-8.92,4.63,-0.10,0.20,-0.08
2024-12-29 15:17:17,789,775,877,832,780,2.57,-9.67,4.69,-0.66,0.46,-0.03
2024-12-29 15:17:17,789,776,878,828,780,1.66,-9.41,2.34,-0.71,0.88,0.68
2024-12-29 15:17:17,786,776,878,831,780,-0.75,-9.95,1.49,-0.42,0.48,0.78
2024-12-29 15:17:17,789,775,878,831,780,-1.53,-9.62,1.24,-0.02,0.04,0.35
2024-12-29 15:17:17,786,776,879,831,779,-2.14,-9.43,1.45,0.01,0.06,0.10
2024-12-29 15:17:18,789,773,877,830,779,-1.97,-9.69,1.57,-0.03,0.05,-0.02
2024-12-29 15:17:18,786,775,878,829,780,-2.23,-9.43,1.18,0.06,-0.15,-0.58
2024-12-29 15:17:18,788,776,878,830,780,0.35,-9.64,2.20,0.43,-0.32,-0.94
2024-12-29 15:17:18,790,776,879,831,780,1.84,-9.34,3.38,0.50,-0.54,-0.43
2024-12-29 15:17:18,787,775,879,829,779,2.54,-9.46,4.67,0.17,-0.35,0.05
2024-12-29 15:17:18,790,776,879,830,780,1.47,-9.01,4.57,-0.06,-0.11,0.03
2024-12-29 15:17:19,789,774,877,830,780,1.65,-9.06,4.28,-0.06,0.00,-0.01
2024-12-29 15:17:19,789,776,879,831,780,1.57,-9.03,4.49,-0.05,0.13,-0.07
2024-12-29 15:17:19,788,776,878,830,780,2.00,-9.56,4.30,-0.43,0.32,-0.10
2024-12-29 15:17:19,788,776,879,830,780,1.46,-9.50,3.54,-0.57,0.56,0.36
2024-12-29 15:17:19,788,775,872,838,780,0.61,-9.78,2.21,-0.42,0.37,0.53
2024-12-29 15:17:20,789,777,872,836,780,-0.75,-9.68,1.57,-0.39,0.31,0.63
2024-12-29 15:17:20,788,776,873,837,781,-1.90,-9.60,0.87,-0.04,0.08,0.17
2024-12-29 15:17:20,788,776,874,833,781,-2.19,-9.28,1.65,0.03,-0.02,-0.04
2024-12-29 15:17:20,788,775,875,833,781,-2.04,-9.52,1.47,-0.07,0.04,-0.01
2024-12-29 15:17:20,790,777,874,833,782,-1.74,-9.70,0.90,0.17,-0.24,-0.74
2024-12-29 15:17:20,790,776,876,833,780,-0.63,-9.60,1.38,0.26,-0.25,-0.55
2024-12-29 15:17:21,789,778,874,833,781,1.38,-9.71,3.12,0.48,-0.40,-0.32
2024-12-29 15:17:21,789,778,878,834,780,2.14,-9.64,4.74,0.44,-0.22,0.17
2024-12-29 15:17:21,788,777,875,837,780,0.83,-9.09,4.13,-0.02,-0.14,0.04
2024-12-29 15:17:21,789,773,872,838,778,1.29,-9.40,4.52,-0.13,-0.17,-0.07
2024-12-29 15:17:21,788,772,875,835,780,1.77,-9.17,4.57,-0.05,0.04,-0.01
2024-12-29 15:17:22,791,772,875,837,780,1.39,-9.22,4.42,-0.05,0.04,0.02
2024-12-29 15:17:22,789,775,871,837,780,1.72,-9.41,4.49,-0.60,0.99,0.10
2024-12-29 15:17:22,789,776,872,838,780,1.26,-9.82,3.38,-0.70,0.80,0.47
2024-12-29 15:17:22,787,776,871,837,780,-1.30,-9.55,0.97,-0.66,0.59,0.93
2024-12-29 15:17:22,788,775,872,835,779,-2.72,-9.24,1.00,0.00,0.03,0.23
2024-12-29 15:17:23,787,776,872,836,779,-2.09,-9.56,1.51,-0.00,-0.01,-0.05
2024-12-29 15:17:23,788,775,872,836,779,-2.27,-9.47,1.40,-0.14,-0.03,-0.21
2024-12-29 15:17:23,789,779,872,837,779,-1.97,-8.88,0.76,0.18,-0.35,-0.68
2024-12-29 15:17:23,788,780,869,842,780,0.78,-10.08,2.91,0.61,-0.78,-0.74
2024-12-29 15:17:23,788,779,866,843,780,1.53,-9.57,3.83,0.36,-0.25,-0.18
2024-12-29 15:17:23,788,778,869,843,779,1.99,-9.41,4.57,0.23,-0.27,0.08
2024-12-29 15:17:24,788,776,870,842,781,2.01,-9.18,4.48,0.00,-0.20,-0.03
2024-12-29 15:17:24,788,776,868,842,781,1.71,-9.10,4.30,-0.03,-0.01,0.02
2024-12-29 15:17:24,788,776,866,840,779,2.00,-9.14,4.50,-0.02,0.01,-0.03
2024-12-29 15:17:24,787,777,866,840,779,1.66,-9.04,4.66,-0.46,0.52,-0.06
2024-12-29 15:17:24,789,778,867,843,778,1.63,-9.74,3.45,-0.65,0.71,0.34
2024-12-29 15:17:25,789,779,866,843,780,0.14,-9.84,2.40,-0.48,0.50,0.61
2024-12-29 15:17:25,788,777,865,843,780,-1.17,-9.44,1.14,-0.31,0.43,0.68
2024-12-29 15:17:25,787,777,866,841,780,-1.81,-9.56,1.28,-0.01,0.03,0.22
2024-12-29 15:17:25,786,774,868,838,779,-2.07,-9.35,1.41,0.02,-0.02,-0.04
2024-12-29 15:17:25,789,776,867,841,780,-2.21,-9.44,1.56,-0.04,0.07,-0.08
2024-12-29 15:17:25,787,776,865,843,779,-1.92,-9.31,1.47,0.17,-0.12,-0.54
2024-12-29 15:17:26,789,777,865,843,780,0.74,-9.79,2.39,0.77,-0.58,-1.02
2024-12-29 15:17:26,787,777,865,845,779,0.97,-8.86,3.71,0.68,-0.57,-0.45
2024-12-29 15:17:26,788,779,867,846,781,2.50,-9.21,5.11,0.11,0.22,-0.05
2024-12-29 15:17:26,790,776,865,843,780,1.90,-9.09,4.84,-0.08,-0.10,0.32
2024-12-29 15:17:26,789,775,863,843,781,1.66,-9.05,4.70,-0.07,0.04,0.02
2024-12-29 15:17:27,789,776,865,843,781,1.29,-9.04,4.65,-0.04,0.11,0.00
2024-12-29 15:17:27,791,776,867,843,780,1.37,-9.22,4.88,-0.28,0.23,-0.23
2024-12-29 15:17:27,789,776,865,845,779,1.63,-9.51,3.71,-0.96,0.57,0.33
2024-12-29 15:17:27,791,777,863,844,779,0.31,-9.65,1.86,-0.42,0.37,0.63
2024-12-29 15:17:27,789,776,864,844,780,-0.74,-9.66,1.62,-0.35,0.10,0.46
2024-12-29 15:17:28,788,775,865,843,779,-1.94,-9.19,1.54,0.06,-0.09,0.21
2024-12-29 15:17:28,788,775,865,843,779,-2.08,-9.55,1.44,0.02,0.02,0.05
2024-12-29 15:17:28,789,775,867,842,780,-2.15,-9.46,1.76,-0.05,0.03,-0.05
2024-12-29 15:17:28,789,777,869,839,779,-2.13,-9.28,1.33,-0.08,-0.09,-0.62
2024-12-29 15:17:28,790,776,867,842,780,0.23,-9.82,2.09,0.50,-0.07,-0.60
2024-12-29 15:17:28,788,779,867,842,780,1.41,-9.85,3.58,0.61,-0.27,-0.24
2024-12-29 15:17:29,790,778,867,844,780,1.91,-9.61,5.10,0.15,-0.34,-0.08
2024-12-29 15:17:29,789,776,865,843,780,0.99,-9.25,4.79,-0.07,-0.09,0.11
2024-12-29 15:17:29,789,774,865,844,780,1.77,-9.11,4.64,0.06,-0.26,-0.04
2024-12-29 15:17:29,790,776,866,843,780,1.48,-9.13,4.55,-0.08,-0.05,0.03
2024-12-29 15:17:29,788,775,868,844,782,1.52,-9.01,4.65,-0.07,0.02,-0.05
2024-12-29 15:17:30,787,776,866,841,779,1.69,-9.28,4.74,-0.09,0.34,-0.15
2024-12-29 15:17:30,789,775,865,842,780,1.86,-9.49,4.16,-0.52,0.51,0.09
2024-12-29 15:17:30,787,776,866,844,780,1.56,-10.02,3.35,-0.63,0.51,0.42
2024-12-29 15:17:30,789,777,864,845,780,-0.38,-9.74,1.82,-0.47,0.40,0.71
2024-12-29 15:17:30,788,777,863,843,779,-2.14,-9.20,0.99,-0.25,0.05,0.40
2024-12-29 15:17:31,789,775,863,843,779,-2.12,-9.34,1.31,-0.04,0.00,-0.03
2024-12-29 15:17:31,788,775,865,842,780,-1.99,-9.57,1.17,-0.07,0.02,-0.17
2024-12-29 15:17:31,791,776,866,844,782,-1.16,-9.54,1.67,0.21,-0.16,-0.55
2024-12-29 15:17:31,788,776,864,843,780,0.05,-10.19,1.96,0.37,-0.22,-0.22
2024-12-29 15:17:31,790,778,866,844,780,2.05,-9.88,3.71,0.35,-0.58,-0.41
2024-12-29 15:17:31,791,779,865,846,780,1.47,-9.41,4.20,0.26,-0.08,0.05
2024-12-29 15:17:32,791,777,864,844,781,1.58,-9.31,4.35,0.11,-0.25,-0.02
2024-12-29 15:17:32,788,775,865,843,779,1.42,-9.16,4.63,-0.04,-0.00,0.05
