Timestamp,Flex1,Flex2,Flex3,Flex4,Flex5,AccelX,AccelY,AccelZ,GyroX,GyroY,GyroZ
2024-12-25 17:28:10,791,788,797,773,770,-1.58,0.78,10.36,-0.05,0.02,-0.02
2024-12-25 17:28:10,788,787,794,771,770,-1.46,0.93,10.43,-0.03,0.06,-0.03
2024-12-25 17:28:10,788,786,790,771,770,-1.70,0.82,10.42,-0.09,-0.02,-0.02
2024-12-25 17:28:10,790,787,791,771,769,-1.48,0.74,10.37,-0.05,0.01,-0.01
2024-12-25 17:28:10,788,787,791,772,771,-1.63,0.69,10.43,-0.05,0.07,0.05
2024-12-25 17:28:10,790,789,793,770,769,-1.54,0.77,10.47,-0.01,0.04,-0.03
2024-12-25 17:28:10,789,788,792,772,771,-1.53,0.76,10.53,0.01,0.01,0.02
2024-12-25 17:28:10,789,788,795,772,771,-1.54,0.81,10.47,-0.04,0.02,0.00
2024-12-25 17:28:10,789,787,794,771,770,-1.64,0.71,10.35,-0.02,0.02,-0.01
2024-12-25 17:28:10,789,787,795,773,769,-1.56,0.80,10.49,-0.06,0.01,-0.01
2024-12-25 17:28:10,790,788,794,771,770,-1.39,0.84,10.48,-0.02,-0.04,-0.00
2024-12-25 17:28:10,789,789,796,772,770,-1.47,0.85,10.45,-0.03,0.02,-0.00
2024-12-25 17:28:10,790,788,795,772,770,-1.51,0.74,10.36,-0.05,0.04,0.01
2024-12-25 17:28:10,790,790,795,771,770,-1.67,0.74,10.50,-0.03,0.06,-0.02
2024-12-25 17:28:10,790,790,798,772,771,-1.38,0.87,10.56,-0.01,0.02,-0.01
2024-12-25 17:28:10,788,788,795,772,771,-1.58,0.75,10.39,-0.07,0.07,0.00
2024-12-25 17:28:10,791,791,797,771,772,-1.52,0.75,10.46,-0.07,0.03,-0.03
2024-12-25 17:28:10,790,789,796,773,770,-1.56,0.69,10.46,-0.07,0.05,-0.03
2024-12-25 17:28:10,790,790,795,773,769,-1.50,0.71,10.47,-0.05,0.02,-0.02
2024-12-25 17:28:10,790,790,798,774,770,-1.63,0.62,10.44,-0.05,0.04,-0.02
2024-12-25 17:28:10,790,790,797,772,770,-1.47,0.60,10.38,-0.05,-0.00,-0.01
2024-12-25 17:28:10,791,790,799,774,771,-1.63,0.60,10.47,-0.07,0.03,-0.01
2024-12-25 17:28:10,790,788,796,774,769,-1.85,0.34,11.74,-0.81,0.04,-0.31
2024-12-25 17:28:11,792,789,797,776,770,-1.82,-2.66,11.43,-2.38,0.47,-0.43
2024-12-25 17:28:11,789,791,800,780,772,-1.15,-4.78,7.96,-1.88,0.32,-0.35
2024-12-25 17:28:11,791,792,801,780,773,-1.24,-9.25,4.72,-1.09,0.55,-0.54
2024-12-25 17:28:11,793,789,799,779,774,2.68,-9.08,3.15,-0.86,-0.49,-0.59
2024-12-25 17:28:11,792,788,796,778,772,-8.23,-7.07,1.82,-1.04,0.53,2.73
2024-12-25 17:28:12,796,788,799,777,773,-1.92,-7.20,1.90,0.32,0.95,-3.16
2024-12-25 17:28:12,795,788,801,776,773,7.73,-10.74,3.34,0.37,0.39,-0.60
2024-12-25 17:28:12,794,787,799,777,773,0.02,-7.14,2.85,-0.31,-0.91,3.43
2024-12-25 17:28:12,794,786,803,780,776,-12.56,-7.52,0.64,-0.43,0.20,-0.65
2024-12-25 17:28:12,795,789,805,778,774,0.32,-7.66,2.73,0.39,0.94,-3.24
2024-12-25 17:28:13,800,788,805,779,774,8.80,-9.94,2.15,-0.08,-0.30,0.30
2024-12-25 17:28:13,795,788,806,780,774,-0.78,-7.78,2.41,0.06,-1.13,3.45
2024-12-25 17:28:13,793,789,805,778,774,-10.54,-8.04,1.17,-0.17,0.20,-1.48
2024-12-25 17:28:13,797,788,807,782,773,2.50,-7.97,2.12,0.50,0.86,-2.29
2024-12-25 17:28:13,800,790,805,777,773,8.67,-10.18,3.43,0.16,-0.83,0.58
2024-12-25 17:28:13,798,789,805,778,773,-4.94,-6.00,2.53,-0.31,-0.58,3.47
2024-12-25 17:28:14,796,790,806,782,774,-10.60,-8.29,2.21,0.18,0.49,-1.82
2024-12-25 17:28:14,797,788,806,781,774,3.69,-8.02,2.62,-0.18,0.70,-2.58
2024-12-25 17:28:14,799,790,808,783,777,7.20,-10.05,1.70,0.19,-0.86,1.06
2024-12-25 17:28:14,799,790,806,782,776,-3.62,-6.86,2.51,0.14,-0.62,3.26
2024-12-25 17:28:14,798,791,808,783,777,-9.26,-8.47,2.46,0.19,0.15,-1.74
2024-12-25 17:28:15,798,790,810,783,777,2.48,-8.12,2.13,0.24,1.10,-2.61
2024-12-25 17:28:15,800,791,810,785,776,7.44,-9.13,3.49,0.15,-0.55,1.22
2024-12-25 17:28:15,798,790,808,783,775,-3.60,-7.36,2.68,-0.61,-0.33,3.16
2024-12-25 17:28:15,799,790,807,783,775,-9.68,-8.37,1.32,0.09,0.28,-1.81
2024-12-25 17:28:15,804,791,810,785,777,2.40,-8.20,1.67,0.11,0.56,-2.82
2024-12-25 17:28:16,803,792,809,785,775,5.86,-9.37,2.43,-0.11,-0.49,2.26
2024-12-25 17:28:16,801,794,810,784,777,-5.56,-6.64,1.83,-0.14,-0.13,2.69
2024-12-25 17:28:16,800,793,811,786,776,-8.24,-7.92,1.62,0.48,0.13,-2.29
2024-12-25 17:28:16,802,791,812,786,775,3.02,-8.50,2.11,0.22,0.72,-2.95
2024-12-25 17:28:16,801,793,810,786,776,7.38,-8.57,2.41,0.03,-0.93,1.83
2024-12-25 17:28:16,799,792,810,785,776,-6.10,-6.82,2.38,-0.14,-0.19,3.13
2024-12-25 17:28:17,801,792,812,784,776,-7.79,-7.57,2.17,0.44,0.12,-2.51
2024-12-25 17:28:17,800,793,812,786,775,3.39,-8.92,2.16,0.09,1.20,-1.97
2024-12-25 17:28:17,799,792,810,785,773,5.83,-9.61,1.86,-0.31,-0.70,1.30
2024-12-25 17:28:17,798,792,811,785,774,-3.49,-7.66,1.74,-0.16,-0.89,2.38
2024-12-25 17:28:17,798,794,810,784,776,-9.61,-9.00,2.33,-0.17,0.58,-0.70
2024-12-25 17:28:18,801,793,813,784,774,-0.05,-8.79,1.32,0.20,1.08,-2.04
2024-12-25 17:28:18,799,793,812,787,777,6.36,-9.81,2.94,-0.04,-0.21,0.22
2024-12-25 17:28:18,797,793,813,786,777,-2.13,-7.69,2.70,-0.12,-0.87,2.44
2024-12-25 17:28:18,799,793,813,788,777,-8.92,-9.20,0.59,-0.30,0.24,-0.73
2024-12-25 17:28:18,800,793,814,789,775,-0.96,-8.27,2.08,0.27,1.11,-2.16
2024-12-25 17:28:18,802,793,813,789,777,5.96,-10.02,2.91,0.07,0.01,-0.14
2024-12-25 17:28:19,804,792,813,788,775,1.04,-8.52,2.26,-0.22,-1.34,2.29
2024-12-25 17:28:19,799,793,812,787,777,-9.59,-8.49,1.05,-0.35,-0.02,0.90
2024-12-25 17:28:19,798,794,814,787,778,-2.72,-7.69,1.84,0.29,1.07,-2.85
2024-12-25 17:28:19,802,793,816,790,778,7.87,-10.34,3.29,0.56,0.52,-1.26
2024-12-25 17:28:19,795,793,812,789,777,2.47,-8.20,2.64,-0.23,-1.13,2.87
2024-12-25 17:28:20,793,793,812,788,778,-6.97,-7.75,1.75,-0.16,-0.60,2.15
2024-12-25 17:28:20,793,792,811,787,777,-8.70,-6.62,2.45,0.45,0.15,-2.14
2024-12-25 17:28:20,794,793,814,786,777,1.03,-8.35,2.50,0.20,0.68,-2.83
2024-12-25 17:28:20,794,794,814,786,778,8.43,-9.84,3.76,0.04,0.37,-0.53
2024-12-25 17:28:20,791,791,814,785,778,3.13,-8.04,2.95,-0.25,-1.56,2.77
2024-12-25 17:28:21,791,791,812,784,776,-6.07,-6.62,2.55,0.06,-0.58,2.31
2024-12-25 17:28:21,794,793,813,785,780,-11.00,-7.55,4.01,0.26,-0.21,-1.34
2024-12-25 17:28:21,793,791,813,786,778,-2.37,-7.42,2.94,-0.01,1.11,-2.67
2024-12-25 17:28:21,798,793,815,788,777,7.31,-8.77,2.70,0.67,1.10,-1.97
2024-12-25 17:28:21,798,793,815,788,778,7.20,-8.96,5.02,-0.45,-1.42,1.72
2024-12-25 17:28:21,796,793,813,786,777,-2.62,-5.59,2.91,-0.38,-0.51,3.70
2024-12-25 17:28:22,796,792,810,781,777,-14.68,-6.44,3.64,0.07,-0.24,-0.45
2024-12-25 17:28:22,797,796,811,780,774,-2.97,-7.01,3.26,-0.06,1.42,-3.14
2024-12-25 17:28:22,801,796,813,779,775,5.47,-8.71,3.33,0.79,1.76,-2.12
2024-12-25 17:28:22,803,797,813,780,774,7.60,-8.89,4.75,-0.34,-1.07,1.38
2024-12-25 17:28:22,800,796,813,781,774,-1.43,-7.20,2.81,-0.63,-1.17,3.12
2024-12-25 17:28:23,799,795,814,780,775,-8.44,-6.45,3.49,0.27,-0.22,1.96
2024-12-25 17:28:23,801,794,815,782,776,-9.84,-6.63,3.82,0.05,0.36,-2.47
2024-12-25 17:28:23,802,796,815,785,775,1.71,-6.34,2.26,0.44,1.88,-2.91
2024-12-25 17:28:23,803,798,815,784,776,8.66,-9.98,6.13,0.35,0.27,-0.88
2024-12-25 17:28:23,800,796,816,785,775,5.27,-7.22,3.83,-0.45,-2.25,3.22
2024-12-25 17:28:24,799,796,814,784,775,-6.40,-5.48,3.20,-0.20,-1.31,2.51
2024-12-25 17:28:24,801,794,816,786,776,-13.44,-6.13,4.45,0.07,0.07,-1.36
2024-12-25 17:28:24,797,796,817,787,775,-2.15,-6.18,2.49,-0.00,1.53,-3.12
2024-12-25 17:28:24,798,798,817,786,777,5.84,-7.76,3.94,0.75,2.06,-1.97
2024-12-25 17:28:24,801,797,817,787,777,8.67,-9.42,5.81,-0.79,-1.33,1.14
2024-12-25 17:28:24,800,796,817,785,776,-1.36,-5.93,2.84,-1.08,-1.72,3.30
2024-12-25 17:28:25,798,794,815,786,777,-11.77,-4.67,2.36,0.68,0.10,2.44
2024-12-25 17:28:25,796,795,816,786,775,-7.71,-5.94,4.60,0.04,0.90,-2.85
2024-12-25 17:28:25,797,794,817,787,776,2.83,-6.99,2.62,0.27,2.46,-2.94
2024-12-25 17:28:25,799,795,819,786,775,11.08,-9.00,7.54,0.43,-0.25,-0.27
2024-12-25 17:28:25,799,795,818,787,776,2.49,-7.19,3.27,0.10,-2.44,3.14
2024-12-25 17:28:26,794,795,816,785,776,-8.76,-5.49,4.35,0.77,-0.03,3.54
2024-12-25 17:28:26,794,795,816,786,777,-8.65,-6.48,5.82,0.08,0.34,-2.10
2024-12-25 17:28:26,797,796,820,787,778,-0.45,-7.30,2.73,-0.12,1.84,-3.14
2024-12-25 17:28:26,804,795,821,790,777,9.94,-9.01,3.72,0.45,0.80,-1.38
2024-12-25 17:28:26,802,794,818,788,778,6.80,-8.22,3.68,0.44,-2.18,2.85
2024-12-25 17:28:26,797,794,818,786,778,-5.27,-4.82,4.70,-0.61,-1.05,3.88
2024-12-25 17:28:27,798,794,816,785,779,-15.00,-4.77,4.96,-0.45,0.49,-0.71
2024-12-25 17:28:27,799,796,817,786,778,-3.28,-5.64,3.87,0.69,1.45,-4.80
2024-12-25 17:28:27,802,796,817,790,777,11.38,-7.00,4.72,0.12,1.70,-2.26
2024-12-25 17:28:27,799,794,816,788,778,6.43,-7.71,3.86,-0.01,-2.34,3.14
2024-12-25 17:28:27,797,794,816,785,778,-7.40,-3.15,4.09,-1.13,-0.85,5.36
2024-12-25 17:28:28,796,794,821,787,780,-12.44,-5.73,2.79,0.59,0.79,-2.54
2024-12-25 17:28:28,796,794,819,787,779,0.58,-5.64,4.59,0.61,0.24,-5.32
2024-12-25 17:28:28,802,795,815,786,779,11.95,-6.84,1.35,-0.47,0.00,1.01
2024-12-25 17:28:28,798,794,816,786,778,-7.58,-5.52,3.95,-0.87,1.36,5.01
2024-12-25 17:28:28,797,793,814,788,778,-2.97,-6.92,3.02,1.02,0.52,-5.22
2024-12-25 17:28:29,804,795,816,787,778,12.13,-7.09,2.47,0.09,-0.68,0.75
2024-12-25 17:28:29,797,794,813,786,778,-8.74,-4.29,3.51,-1.15,1.15,6.11
2024-12-25 17:28:29,794,794,818,789,778,-5.89,-6.63,2.47,0.88,1.12,-4.49
2024-12-25 17:28:29,803,794,813,788,778,11.24,-6.68,4.31,0.08,0.35,-1.43
2024-12-25 17:28:29,799,793,812,786,776,-2.33,-6.79,4.47,0.50,-0.67,6.86
2024-12-25 17:28:29,795,792,819,785,778,-9.48,-6.83,2.60,0.49,0.37,-2.87
2024-12-25 17:28:30,797,793,816,786,777,5.66,-7.68,4.74,0.32,0.05,-3.57
2024-12-25 17:28:30,799,793,816,787,776,5.49,-7.35,4.44,0.11,-0.93,3.65
2024-12-25 17:28:30,793,790,798,779,777,-14.17,-8.15,1.29,0.28,0.18,0.06
2024-12-25 17:28:30,789,787,793,777,776,1.42,-7.76,4.52,-0.09,0.49,-3.04
2024-12-25 17:28:30,791,786,794,776,775,4.70,-7.37,3.28,-0.01,-0.69,3.78
2024-12-25 17:28:31,791,786,800,779,775,-14.10,-6.69,0.37,0.62,-0.10,-0.76
2024-12-25 17:28:31,794,785,800,778,775,3.60,-7.72,4.56,0.18,0.40,-3.28
2024-12-25 17:28:31,795,786,795,778,775,5.49,-7.44,4.21,0.31,-0.78,2.67
2024-12-25 17:28:31,796,783,793,780,774,-11.56,-10.23,1.69,-0.35,-0.09,-0.69
2024-12-25 17:28:31,798,784,794,779,774,2.32,-8.23,4.77,0.08,0.83,-1.83
2024-12-25 17:28:31,798,783,792,776,773,6.57,-6.96,4.13,0.32,-1.06,1.98
2024-12-25 17:28:32,795,785,794,777,774,-12.91,-6.77,3.31,-0.06,1.01,2.43
2024-12-25 17:28:32,798,785,795,777,774,-1.71,-7.20,5.19,0.02,0.29,-3.23
2024-12-25 17:28:32,798,785,795,777,771,7.16,-7.58,4.28,-0.00,-0.14,-0.69
2024-12-25 17:28:32,796,786,793,777,773,-1.94,-7.53,6.01,0.16,-0.54,3.54
2024-12-25 17:28:32,797,785,796,779,773,-7.34,-8.53,3.30,0.55,-0.25,-1.87
2024-12-25 17:28:33,798,782,794,776,773,3.08,-7.39,5.84,0.27,0.63,-2.64
2024-12-25 17:28:33,800,786,795,775,775,7.92,-7.26,4.68,0.07,-0.75,2.02
2024-12-25 17:28:33,797,783,795,778,775,-9.94,-7.92,3.32,-0.81,0.61,2.87
2024-12-25 17:28:33,799,785,794,776,774,-4.13,-7.35,4.22,0.53,0.57,-2.37
2024-12-25 17:28:33,798,785,796,776,776,5.69,-8.04,5.25,0.07,0.17,-1.63
2024-12-25 17:28:34,800,787,797,777,775,2.06,-6.82,5.28,0.18,-0.92,3.36
2024-12-25 17:28:34,796,786,798,778,775,-12.68,-8.81,1.93,-0.29,0.09,-0.15
2024-12-25 17:28:34,798,785,798,778,775,-0.21,-7.58,4.99,0.32,0.68,-2.54
2024-12-25 17:28:34,800,789,798,780,776,7.66,-7.87,4.36,0.11,-0.69,-0.37
2024-12-25 17:28:34,800,784,797,777,774,-4.93,-6.69,5.13,-0.21,0.51,3.71
2024-12-25 17:28:34,799,787,799,782,774,-7.55,-8.20,3.79,0.73,0.16,-2.17
2024-12-25 17:28:35,799,788,799,780,774,4.83,-7.24,5.70,0.02,0.26,-1.82
2024-12-25 17:28:35,799,788,798,780,773,3.99,-7.01,5.63,0.11,-0.82,2.63
2024-12-25 17:28:35,798,788,799,782,774,-11.45,-9.41,2.21,-0.73,-0.08,0.59
2024-12-25 17:28:35,798,788,801,782,776,-3.43,-7.85,4.66,0.59,0.96,-2.49
2024-12-25 17:28:35,803,789,801,781,775,8.58,-7.46,5.36,-0.18,-0.12,-1.11
2024-12-25 17:28:36,802,789,802,780,775,0.51,-7.00,4.90,-0.42,-0.74,3.87
2024-12-25 17:28:36,799,789,802,781,774,-12.46,-7.40,1.28,-0.12,0.39,0.02
2024-12-25 17:28:36,801,790,807,781,776,-0.82,-7.47,4.73,0.52,0.68,-2.93
2024-12-25 17:28:36,802,791,807,782,776,6.62,-8.85,5.09,-0.04,-0.32,-0.72
2024-12-25 17:28:36,800,790,804,780,774,-0.67,-7.77,4.89,-0.51,-0.82,3.46
2024-12-25 17:28:37,799,791,804,780,776,-10.52,-8.08,1.45,0.25,0.39,-0.64
2024-12-25 17:28:37,799,788,797,775,773,0.72,-8.04,5.47,1.34,0.46,-2.83
2024-12-25 17:28:37,799,785,792,773,775,6.80,-7.35,6.50,-0.07,-0.19,1.69
2024-12-25 17:28:37,797,783,791,776,775,-8.03,-7.72,5.37,-0.84,0.25,2.17
2024-12-25 17:28:37,787,784,791,773,773,-5.43,-6.81,4.35,0.63,0.48,-1.44
2024-12-25 17:28:37,776,784,790,774,775,2.59,-7.90,7.53,0.47,0.24,-1.58
2024-12-25 17:28:38,773,785,792,773,774,2.34,-6.72,6.38,-0.51,-0.53,2.43
2024-12-25 17:28:38,773,781,789,773,773,-11.57,-7.41,3.70,-0.18,0.22,1.28
2024-12-25 17:28:38,775,779,789,771,773,-4.03,-6.47,5.86,0.59,0.47,-2.33
2024-12-25 17:28:38,781,779,788,768,774,4.01,-7.79,7.34,-0.20,-0.03,-0.76
2024-12-25 17:28:38,780,779,788,768,774,-2.98,-6.67,5.71,-0.66,-0.31,2.69
2024-12-25 17:28:39,785,781,791,770,773,-9.64,-7.34,3.24,0.31,0.06,-1.03
2024-12-25 17:28:39,785,782,790,771,773,-0.67,-7.42,6.71,0.82,0.53,-2.04
2024-12-25 17:28:39,788,783,792,771,773,5.10,-7.49,6.91,-0.57,-0.79,0.93
2024-12-25 17:28:39,790,784,794,774,775,-9.67,-6.00,3.30,-0.86,0.50,2.73
2024-12-25 17:28:39,787,786,797,775,772,-4.55,-6.54,5.28,0.80,0.34,-2.70
2024-12-25 17:28:39,794,787,795,774,774,7.54,-6.98,7.46,0.14,-0.24,-1.09
2024-12-25 17:28:40,795,785,796,774,774,-1.41,-6.18,6.59,-0.81,-0.44,3.99
2024-12-25 17:28:40,794,787,801,778,775,-10.79,-6.31,2.41,0.73,0.17,-1.37
2024-12-25 17:28:40,795,789,799,777,774,1.39,-6.65,8.03,1.19,0.32,-3.25
2024-12-25 17:28:40,798,787,796,775,775,4.27,-7.18,7.46,-0.45,-0.46,2.67
2024-12-25 17:28:40,795,788,801,778,776,-11.55,-5.44,3.21,-1.26,0.90,1.53
2024-12-25 17:28:41,794,790,803,779,778,-3.78,-7.15,4.84,1.18,0.45,-2.73
2024-12-25 17:28:41,793,789,801,780,776,7.10,-7.69,6.99,-0.22,-0.57,-1.39
2024-12-25 17:28:41,795,789,801,778,776,-1.88,-7.31,6.22,-0.49,-0.55,4.07
2024-12-25 17:28:41,794,789,804,780,773,-9.86,-6.48,3.13,0.13,0.38,-1.35
2024-12-25 17:28:41,794,790,805,781,772,1.45,-7.50,6.41,1.05,1.00,-3.46
2024-12-25 17:28:42,798,788,802,779,773,7.87,-7.36,5.85,-0.28,-0.67,1.86
2024-12-25 17:28:42,792,787,803,778,775,-8.97,-5.39,3.67,-1.55,0.85,3.43
2024-12-25 17:28:42,796,790,803,780,776,-7.08,-6.85,4.35,0.92,0.73,-2.80
2024-12-25 17:28:42,795,789,804,779,774,7.78,-6.15,6.54,0.61,-0.11,-3.02
2024-12-25 17:28:42,796,789,802,777,772,3.36,-7.07,6.09,-0.14,-0.78,4.11
2024-12-25 17:28:42,794,792,804,779,774,-14.52,-6.31,2.20,-0.35,0.02,0.08
2024-12-25 17:28:43,794,790,805,779,774,-0.71,-7.17,6.21,1.02,0.34,-3.87
2024-12-25 17:28:43,796,788,800,776,774,8.33,-7.21,6.32,-0.29,-0.30,1.32
2024-12-25 17:28:43,794,789,802,777,776,-6.31,-4.13,5.51,-1.41,0.80,5.03
2024-12-25 17:28:43,795,789,806,779,778,-6.66,-6.15,5.23,0.80,-0.06,-3.19
2024-12-25 17:28:43,797,791,802,779,776,7.09,-6.52,5.83,0.53,-0.72,-2.50
2024-12-25 17:28:44,798,791,802,775,775,-0.62,-7.22,5.98,-0.34,-0.28,4.87
2024-12-25 17:28:44,797,790,804,778,779,-11.27,-5.21,4.45,0.50,-0.43,-2.10
2024-12-25 17:28:44,797,791,803,779,777,1.91,-6.16,7.02,1.36,0.45,-3.77
2024-12-25 17:28:44,800,790,799,774,776,7.60,-6.82,6.74,-0.20,-0.34,1.93
2024-12-25 17:28:44,798,789,800,775,777,-7.42,-5.54,5.89,-1.23,0.82,3.25
2024-12-25 17:28:45,799,791,802,777,776,-4.99,-6.82,5.15,0.78,-0.02,-3.11
2024-12-25 17:28:45,798,790,803,779,776,7.90,-6.79,6.31,-0.05,-0.25,-2.39
2024-12-25 17:28:45,799,790,803,779,777,2.71,-6.72,5.95,-0.11,-0.67,4.38
2024-12-25 17:28:45,797,793,814,779,778,-13.40,-6.49,3.75,-0.23,0.18,-0.37
2024-12-25 17:28:45,797,793,811,779,777,1.69,-6.51,5.31,0.12,-0.75,-4.34
2024-12-25 17:28:45,803,796,811,782,777,9.55,-6.94,5.13,-0.03,-0.36,1.19
2024-12-25 17:28:46,795,792,804,780,775,-4.30,-5.91,5.48,-0.05,0.77,3.78
2024-12-25 17:28:46,794,787,797,777,775,-6.74,-7.48,4.74,0.93,-0.55,-2.54
2024-12-25 17:28:46,794,782,793,774,776,5.02,-7.10,7.51,0.08,0.18,-1.44
2024-12-25 17:28:46,795,784,792,775,775,1.53,-5.93,6.81,-0.26,-0.65,3.07
2024-12-25 17:28:46,794,786,797,778,775,-12.41,-8.39,2.29,-0.44,-0.16,-0.79
2024-12-25 17:28:47,793,786,800,777,776,-2.08,-7.33,6.55,0.89,0.97,-2.19
2024-12-25 17:28:47,796,788,800,777,776,6.91,-6.11,7.84,-0.05,-0.36,-0.50
2024-12-25 17:28:47,797,788,798,778,774,-2.19,-6.18,7.04,-0.39,-0.57,3.16
2024-12-25 17:28:47,795,790,803,779,777,-10.03,-7.32,4.02,0.06,0.29,-0.67
2024-12-25 17:28:47,795,789,805,779,775,-1.25,-6.20,7.32,0.59,0.20,-2.93
2024-12-25 17:28:48,796,792,804,780,773,7.19,-7.37,8.55,-0.03,-0.18,0.32
2024-12-25 17:28:48,798,793,807,779,773,-1.23,-5.74,5.95,-1.07,-0.59,3.35
2024-12-25 17:28:48,799,794,810,783,772,-10.50,-6.94,3.57,-0.49,0.43,-0.44
2024-12-25 17:28:48,798,795,815,784,774,-0.58,-6.81,6.19,1.09,0.03,-3.66
2024-12-25 17:28:48,797,794,809,785,772,8.49,-6.40,6.61,-0.40,-0.21,1.39
2024-12-25 17:28:48,796,794,810,783,774,-6.67,-6.70,4.89,-0.79,0.13,4.51
2024-12-25 17:28:49,796,794,817,786,776,-7.49,-5.74,3.76,0.96,-0.22,-3.25
2024-12-25 17:28:49,795,795,811,787,775,5.69,-7.25,6.36,0.64,-0.21,-2.75
2024-12-25 17:28:49,797,794,809,786,776,3.98,-7.42,6.49,-0.42,-0.53,2.77
2024-12-25 17:28:49,794,794,809,782,777,-9.84,-6.05,3.81,-1.15,0.56,2.95
2024-12-25 17:28:49,794,795,810,786,778,-5.63,-6.47,5.36,1.45,0.21,-3.83
2024-12-25 17:28:50,798,794,808,784,776,6.51,-6.22,7.93,0.09,0.27,-1.53
2024-12-25 17:28:50,797,794,807,783,774,2.67,-6.43,7.08,-0.42,-0.75,3.24
2024-12-25 17:28:50,797,797,816,784,773,-10.52,-7.57,3.27,-1.22,-0.15,1.06
2024-12-25 17:28:50,795,796,816,785,773,-2.20,-7.22,6.29,1.82,0.45,-3.56
2024-12-25 17:28:50,798,795,811,783,772,7.59,-6.13,7.27,-0.42,-0.11,1.20
2024-12-25 17:28:50,797,796,809,783,771,-6.63,-7.02,5.76,-1.69,0.49,3.18
2024-12-25 17:28:51,795,790,803,780,773,-6.04,-7.00,3.75,0.86,0.68,-2.35
2024-12-25 17:28:51,797,788,797,777,772,5.70,-7.13,6.87,0.58,-0.30,-2.86
2024-12-25 17:28:51,795,788,792,777,773,3.08,-5.86,6.82,0.75,-0.33,3.49
2024-12-25 17:28:51,794,782,787,773,773,-11.78,-7.18,5.77,-0.13,-0.15,0.69
2024-12-25 17:28:51,790,779,786,772,773,-2.19,-5.88,7.66,0.45,0.56,-2.21
2024-12-25 17:28:52,789,778,787,771,774,6.24,-6.18,8.34,-0.07,-0.36,-0.37
2024-12-25 17:28:52,790,778,786,771,775,-1.01,-5.36,7.91,-0.17,-0.31,2.65
2024-12-25 17:28:52,790,778,788,770,774,-10.96,-6.52,4.60,-0.47,0.30,-0.92
2024-12-25 17:28:52,793,778,786,771,775,-0.68,-6.06,8.15,0.56,0.46,-2.39
2024-12-25 17:28:52,793,781,788,771,775,7.95,-6.48,6.84,0.02,-0.77,0.91
2024-12-25 17:28:53,792,780,790,774,773,-10.66,-5.79,6.72,-1.40,0.84,3.23
2024-12-25 17:28:53,792,782,795,775,774,-4.51,-5.94,4.93,0.78,0.91,-2.44
2024-12-25 17:28:53,793,783,794,775,774,5.76,-6.10,8.77,0.00,-0.06,-1.47
2024-12-25 17:28:53,793,785,793,776,773,0.24,-4.71,7.61,-0.46,-0.64,3.58
2024-12-25 17:28:53,795,786,796,778,773,-13.60,-6.81,3.01,-0.89,0.54,0.23
2024-12-25 17:28:53,793,786,797,777,774,-2.71,-5.52,7.75,0.83,0.91,-2.82
2024-12-25 17:28:54,793,787,797,778,773,7.79,-5.72,8.47,0.27,-0.19,-0.83
2024-12-25 17:28:54,793,785,796,775,774,-1.58,-5.70,7.06,-0.97,-0.75,3.76
2024-12-25 17:28:54,795,788,798,777,776,-12.76,-5.09,4.09,-0.38,0.66,0.93
2024-12-25 17:28:54,795,789,799,779,773,-4.51,-6.45,5.75,1.86,0.43,-4.63
2024-12-25 17:28:54,793,789,794,778,773,5.48,-3.85,10.27,-0.05,0.40,-0.80
2024-12-25 17:28:55,794,788,798,777,774,-0.76,-6.06,7.26,-1.55,-1.00,3.98
2024-12-25 17:28:55,793,784,794,776,774,-12.51,-6.30,2.68,-1.22,0.64,-0.08
2024-12-25 17:28:55,794,786,797,779,774,-0.76,-6.42,7.29,2.49,-0.20,-4.30
2024-12-25 17:28:55,791,783,790,774,774,7.98,-3.06,9.83,-0.91,0.44,0.99
2024-12-25 17:28:55,791,781,789,775,773,-4.41,-6.34,6.48,-2.08,-0.22,4.89
2024-12-25 17:28:56,790,780,793,777,777,-10.36,-5.48,4.45,1.05,-0.57,-2.36
2024-12-25 17:28:56,793,783,794,777,773,3.57,-5.53,7.02,0.16,-0.19,-3.56
2024-12-25 17:28:56,797,784,794,779,773,7.18,-6.07,6.97,-0.20,-0.57,2.49
2024-12-25 17:28:56,793,786,797,779,772,-10.48,-6.25,5.18,-1.29,0.69,4.43
2024-12-25 17:28:56,796,789,802,782,775,-6.49,-6.52,4.40,1.18,0.27,-3.95
2024-12-25 17:28:56,796,791,800,780,774,6.38,-5.25,7.38,0.39,-0.00,-2.77
2024-12-25 17:28:57,796,790,801,778,773,6.69,-5.08,6.18,0.23,-0.63,2.88
2024-12-25 17:28:57,795,792,802,779,776,-12.54,-6.00,4.16,-1.93,2.91,3.29
2024-12-25 17:28:57,793,793,801,780,775,-3.17,-6.63,5.33,0.81,0.45,-4.56
2024-12-25 17:28:57,798,793,802,781,774,11.36,-3.91,6.05,0.30,-0.46,-0.59
2024-12-25 17:28:57,796,792,801,778,773,-2.79,-6.70,6.36,0.16,0.09,5.01
2024-12-25 17:28:58,793,794,802,779,775,-11.52,-6.37,5.02,0.01,0.09,-1.71
2024-12-25 17:28:58,795,793,803,781,773,2.94,-6.04,6.23,0.85,-0.72,-4.73
2024-12-25 17:28:58,798,793,801,779,773,8.16,-4.74,6.05,0.13,0.51,2.24
2024-12-25 17:28:58,794,792,800,778,773,-7.26,-5.67,7.78,-0.19,1.25,5.74
2024-12-25 17:28:58,794,792,807,780,774,-6.78,-5.82,5.74,0.54,-0.07,-3.15
2024-12-25 17:28:59,795,793,804,781,774,4.99,-6.00,7.02,0.07,-0.85,-4.35
2024-12-25 17:28:59,797,796,802,782,774,6.81,-6.45,6.25,-0.38,0.02,3.48
2024-12-25 17:28:59,796,790,800,781,774,-9.60,-7.54,3.15,-1.69,0.45,3.03
2024-12-25 17:28:59,796,791,800,780,776,-5.87,-8.17,3.68,1.35,0.07,-3.83
2024-12-25 17:28:59,800,790,800,779,775,7.72,-5.71,4.79,0.09,-0.22,-2.16
2024-12-25 17:28:59,799,790,800,778,774,3.26,-7.63,4.90,0.12,-0.21,4.39
2024-12-25 17:29:00,796,790,801,778,776,-11.24,-7.26,3.43,-0.63,0.45,1.97
2024-12-25 17:29:00,796,789,803,781,775,-4.58,-6.42,4.56,0.88,-0.41,-4.49
2024-12-25 17:29:00,799,790,803,780,775,11.26,-6.09,4.91,0.30,-0.11,-1.70
2024-12-25 17:29:00,798,790,801,781,774,3.20,-6.01,5.39,-0.58,-0.29,3.69
2024-12-25 17:29:00,799,788,801,779,776,-11.63,-7.51,2.95,-0.95,0.72,1.88
2024-12-25 17:29:01,796,789,800,779,775,-3.18,-7.42,4.49,0.67,0.50,-3.52
2024-12-25 17:29:01,800,790,801,778,774,8.44,-6.86,5.08,0.49,0.13,-2.07
2024-12-25 17:29:01,799,790,801,778,776,3.96,-7.95,5.41,-0.56,-0.94,3.10
2024-12-25 17:29:01,799,791,802,778,775,-9.16,-7.35,2.58,-0.63,0.26,2.26
2024-12-25 17:29:01,799,791,802,782,776,-5.99,-7.45,3.15,0.40,0.92,-2.93
2024-12-25 17:29:01,801,790,802,781,775,6.88,-6.18,4.44,0.67,0.25,-3.65
2024-12-25 17:29:02,798,791,801,781,775,6.21,-8.49,4.56,-0.36,-0.86,2.61
2024-12-25 17:29:02,798,790,801,779,775,-6.51,-6.09,4.11,-0.23,-0.32,4.76
2024-12-25 17:29:02,798,788,801,782,776,-9.29,-7.20,3.10,0.54,0.48,-3.49
2024-12-25 17:29:02,800,789,805,784,777,6.25,-6.82,3.52,0.04,0.74,-3.55
2024-12-25 17:29:02,798,792,805,783,775,7.49,-7.57,3.60,0.24,-0.97,2.16
2024-12-25 17:29:03,797,791,803,781,776,-6.49,-7.05,4.70,0.10,0.11,5.26
2024-12-25 17:29:03,797,792,806,782,776,-7.44,-6.50,3.20,0.61,0.14,-3.77
2024-12-25 17:29:03,801,797,810,785,776,8.17,-6.46,3.92,0.50,-0.10,-4.16
2024-12-25 17:29:03,800,800,811,783,777,8.14,-6.89,3.80,-0.26,-0.13,3.30
2024-12-25 17:29:03,797,799,810,782,777,-6.54,-6.85,3.98,0.05,0.20,4.65
2024-12-25 17:29:04,796,797,812,783,779,-9.02,-6.54,3.64,0.40,0.05,-3.37
2024-12-25 17:29:04,799,799,815,785,777,5.89,-6.59,3.82,0.33,-0.27,-4.65
2024-12-25 17:29:04,803,802,813,785,778,8.78,-6.86,4.45,-0.16,0.01,2.85
2024-12-25 17:29:04,797,798,815,781,778,-5.33,-6.80,3.92,-0.33,0.06,4.66
2024-12-25 17:29:04,798,798,816,784,778,-7.74,-6.97,4.12,0.04,-0.29,-3.22
2024-12-25 17:29:04,801,799,817,787,779,4.72,-7.43,2.63,0.48,0.52,-3.84
2024-12-25 17:29:05,799,796,805,782,778,8.56,-6.83,4.92,0.04,0.06,2.48
2024-12-25 17:29:05,795,787,793,776,776,-5.54,-6.61,4.60,0.70,0.77,3.38
2024-12-25 17:29:05,791,781,790,773,776,-7.89,-7.01,5.52,0.32,-0.28,-2.18
2024-12-25 17:29:05,792,781,788,772,775,3.61,-6.10,4.66,0.16,0.52,-3.14
2024-12-25 17:29:05,792,781,790,773,777,6.24,-7.49,7.63,0.77,0.05,2.36
2024-12-25 17:29:06,787,777,785,769,777,-2.70,-5.14,7.24,0.74,0.10,2.73
2024-12-25 17:29:06,786,777,785,767,779,-7.85,-5.80,8.47,-1.13,-0.00,-1.89
2024-12-25 17:29:06,790,777,787,768,776,2.73,-7.63,4.61,-0.25,0.56,-2.43
2024-12-25 17:29:06,792,780,787,770,777,8.24,-7.19,8.37,-0.23,-0.63,1.59
2024-12-25 17:29:06,789,779,787,771,775,-5.52,-6.57,5.36,-1.56,-0.14,3.19
2024-12-25 17:29:06,791,779,789,772,776,-10.95,-5.98,3.61,0.55,0.38,-1.59
2024-12-25 17:29:07,792,781,792,773,774,1.41,-7.01,5.30,-0.02,0.41,-3.19
2024-12-25 17:29:07,797,783,796,776,773,9.02,-8.97,7.13,0.17,-0.67,0.98
2024-12-25 17:29:07,796,788,798,775,775,-2.80,-5.85,4.45,-0.31,-0.20,3.82
2024-12-25 17:29:07,791,787,797,776,773,-11.52,-6.45,3.99,0.28,0.48,-1.47
2024-12-25 17:29:07,795,787,801,781,774,1.77,-7.12,3.94,0.20,0.62,-3.82
2024-12-25 17:29:08,798,793,803,781,774,9.34,-8.48,5.64,0.03,-0.47,1.38
2024-12-25 17:29:08,796,792,804,777,772,-2.58,-6.89,5.12,0.59,-1.04,4.35
2024-12-25 17:29:08,792,789,806,780,771,-9.28,-6.67,4.37,0.04,-0.23,-1.84
2024-12-25 17:29:08,792,791,808,782,771,1.73,-7.24,5.12,0.27,0.98,-3.63
2024-12-25 17:29:08,796,794,807,781,771,9.59,-7.20,7.77,-0.37,0.10,0.58
2024-12-25 17:29:09,796,792,805,780,772,-1.02,-7.82,3.98,0.15,-1.04,4.79
2024-12-25 17:29:09,793,789,803,779,773,-12.12,-6.41,4.81,-0.20,0.90,-0.93
2024-12-25 17:29:09,795,791,804,781,772,3.22,-6.92,4.38,0.32,0.39,-3.74
2024-12-25 17:29:09,800,793,804,781,772,7.49,-7.55,6.39,0.09,-0.74,1.99
2024-12-25 17:29:09,795,793,803,781,772,-8.13,-7.04,4.49,-0.21,0.68,5.12
2024-12-25 17:29:09,793,792,804,782,773,-5.14,-6.62,5.53,-0.47,0.53,-3.34
2024-12-25 17:29:10,794,795,805,783,774,9.08,-6.51,4.42,0.58,-0.02,-3.26
2024-12-25 17:29:10,796,792,803,780,773,4.64,-7.12,4.64,0.29,-0.88,4.35
2024-12-25 17:29:10,795,791,805,780,777,-13.01,-4.11,5.86,-0.50,1.30,2.00
2024-12-25 17:29:10,794,791,805,781,774,-1.79,-6.94,4.62,-0.13,0.76,-4.83
2024-12-25 17:29:10,799,793,807,783,776,10.75,-7.07,6.99,0.58,0.79,-0.29
2024-12-25 17:29:11,796,792,806,779,775,1.14,-6.47,3.59,-0.02,-2.62,4.22
2024-12-25 17:29:11,794,792,807,780,779,-13.82,-6.02,7.21,0.22,0.37,-0.52
2024-12-25 17:29:11,795,795,811,786,778,1.48,-6.06,3.46,-0.75,1.21,-5.10
2024-12-25 17:29:11,799,791,807,783,777,9.84,-7.54,6.77,0.12,0.17,1.60
2024-12-25 17:29:11,796,791,804,780,778,-0.91,-6.05,3.59,-0.23,-1.22,4.51
2024-12-25 17:29:11,794,793,811,783,783,-13.42,-4.85,3.78,-0.48,1.04,-0.23
2024-12-25 17:29:12,795,792,810,785,782,0.74,-6.47,4.50,0.94,1.14,-4.77
2024-12-25 17:29:12,804,794,812,784,780,10.16,-8.23,6.32,-0.05,0.12,1.00
2024-12-25 17:29:12,798,792,807,781,779,-1.21,-7.08,4.63,-0.57,-1.31,4.09
2024-12-25 17:29:12,796,793,811,783,781,-9.99,-5.65,4.01,-0.22,0.12,1.02
2024-12-25 17:29:12,795,793,810,784,780,-2.78,-6.12,4.42,0.95,0.08,-5.18
2024-12-25 17:29:13,803,794,808,782,777,10.40,-8.19,5.73,0.06,0.29,0.00
2024-12-25 17:29:13,799,793,808,782,777,0.11,-7.61,4.33,-0.06,-1.48,4.13
2024-12-25 17:29:13,796,791,807,782,778,-13.53,-5.04,5.44,0.22,0.58,-1.36
2024-12-25 17:29:13,796,793,808,781,778,2.16,-7.33,4.10,-0.70,0.29,-4.44
2024-12-25 17:29:13,805,796,812,782,779,10.04,-7.19,4.06,0.32,-0.12,0.59
2024-12-25 17:29:14,796,794,808,781,779,-2.77,-7.39,6.19,1.73,0.18,5.54
2024-12-25 17:29:14,792,792,806,780,779,-7.01,-6.03,6.80,-1.31,0.11,-3.10
2024-12-25 17:29:14,797,794,811,783,777,4.16,-7.89,3.81,-0.60,0.81,-2.90
2024-12-25 17:29:14,800,794,812,783,777,7.35,-7.07,2.90,0.61,-0.98,2.02
2024-12-25 17:29:14,797,793,805,780,777,-9.46,-6.41,6.76,1.10,0.89,4.85
2024-12-25 17:29:14,791,793,805,783,778,-4.42,-6.60,6.10,-1.37,0.46,-3.60
2024-12-25 17:29:15,802,789,807,782,778,9.03,-7.18,1.53,-0.63,0.02,-2.70
2024-12-25 17:29:15,799,789,800,781,777,3.31,-7.62,3.00,2.11,-0.77,4.01
2024-12-25 17:29:15,793,785,792,776,777,-11.85,-4.79,7.08,1.12,1.10,1.37
2024-12-25 17:29:15,794,783,792,775,777,-1.50,-6.70,6.05,-1.86,-0.22,-3.65
2024-12-25 17:29:15,799,785,793,776,776,6.09,-8.36,2.04,-0.49,0.70,-1.79
2024-12-25 17:29:16,797,783,794,777,777,4.24,-8.02,3.94,0.27,-0.16,3.93
2024-12-25 17:29:16,794,784,797,778,778,-10.02,-5.12,4.92,-0.65,0.67,2.59
2024-12-25 17:29:16,794,784,799,780,776,-2.80,-7.53,3.52,-0.13,0.56,-4.18
2024-12-25 17:29:16,801,788,800,780,776,10.90,-7.65,2.10,-0.44,-0.09,-0.92
2024-12-25 17:29:16,797,788,798,778,776,-1.37,-8.06,2.63,0.76,-1.02,4.80
2024-12-25 17:29:17,795,787,800,779,777,-12.28,-6.23,4.10,-0.18,0.51,-0.72
2024-12-25 17:29:17,798,787,801,779,776,1.25,-7.64,2.59,0.00,0.44,-4.45
2024-12-25 17:29:17,801,788,804,781,776,10.40,-7.41,2.66,0.39,-0.50,0.72
2024-12-25 17:29:17,796,790,804,778,777,-2.10,-6.82,3.73,0.17,-0.47,4.89
2024-12-25 17:29:17,793,787,802,778,777,-13.26,-4.86,3.68,-0.27,1.15,-1.34
2024-12-25 17:29:17,797,788,805,780,778,0.47,-7.72,3.43,-0.24,0.61,-4.19
2024-12-25 17:29:18,802,789,807,782,778,9.57,-8.21,1.75,0.11,-0.16,-0.10
2024-12-25 17:29:18,798,790,808,782,777,0.47,-7.89,3.87,0.90,-0.50,4.59
2024-12-25 17:29:18,793,791,807,779,779,-14.37,-3.68,6.56,-0.04,-0.09,-0.21
2024-12-25 17:29:18,795,789,806,783,777,-1.14,-7.39,3.59,-1.01,0.51,-4.40
2024-12-25 17:29:18,801,791,810,783,778,11.18,-7.52,2.12,0.66,-0.27,-0.71
2024-12-25 17:29:19,798,792,810,782,778,1.35,-7.30,3.58,1.56,-0.64,4.71
2024-12-25 17:29:19,794,787,803,780,778,-10.42,-3.66,7.33,1.07,-0.44,1.12
2024-12-25 17:29:19,795,790,805,782,777,-3.99,-6.79,5.17,-1.61,0.58,-3.36
2024-12-25 17:29:19,805,792,809,783,777,5.26,-8.13,1.81,-0.22,1.22,-2.07
2024-12-25 17:29:19,801,790,807,781,777,5.48,-9.03,3.68,-0.14,-1.13,2.45
2024-12-25 17:29:19,797,790,808,780,778,-7.66,-3.96,4.06,0.77,-0.28,3.53
2024-12-25 17:29:20,796,788,806,782,779,-9.30,-5.24,6.43,-0.75,0.13,-3.55
2024-12-25 17:29:20,800,791,808,783,778,3.82,-6.86,1.26,-0.54,0.45,-3.87
2024-12-25 17:29:20,803,790,809,784,780,7.99,-7.57,3.52,0.09,-0.10,2.51
2024-12-25 17:29:20,795,789,805,780,779,-6.85,-5.38,3.56,1.64,0.91,4.79
2024-12-25 17:29:20,792,789,805,780,778,-9.38,-5.82,8.29,-0.86,0.14,-1.97
2024-12-25 17:29:21,796,792,809,781,780,1.94,-6.90,2.55,-0.85,0.30,-4.14
2024-12-25 17:29:21,800,796,811,782,777,10.87,-6.78,4.99,0.53,-0.35,0.25
2024-12-25 17:29:21,798,793,809,782,778,0.08,-7.06,3.22,0.53,-0.54,4.18
2024-12-25 17:29:21,795,793,808,782,780,-9.46,-4.59,7.99,0.46,-0.01,0.28
2024-12-25 17:29:21,795,791,808,780,778,-2.53,-6.41,4.79,-1.37,0.62,-3.85
2024-12-25 17:29:22,801,795,812,785,779,10.81,-6.65,4.91,0.88,-0.20,-0.97
2024-12-25 17:29:22,798,795,810,781,778,2.65,-6.54,4.12,0.08,-0.91,3.53
2024-12-25 17:29:22,798,793,808,782,778,-9.70,-5.56,6.38,0.55,0.76,2.61
2024-12-25 17:29:22,795,794,808,783,778,-3.61,-6.98,6.37,-1.63,0.05,-3.90
2024-12-25 17:29:22,800,795,813,784,779,7.14,-6.82,0.69,-0.23,0.18,-2.47
2024-12-25 17:29:22,801,795,811,784,778,5.23,-7.58,4.18,1.17,-0.60,3.84
2024-12-25 17:29:23,798,794,812,783,779,-9.72,-6.05,5.17,1.13,0.23,2.48
2024-12-25 17:29:23,793,792,810,786,779,-5.26,-7.18,6.17,-1.16,0.20,-3.54
2024-12-25 17:29:23,799,796,816,788,779,4.16,-7.64,1.78,-0.19,0.75,-2.95
2024-12-25 17:29:23,800,797,813,787,778,6.80,-7.87,4.56,-0.24,0.32,3.16
2024-12-25 17:29:23,797,796,809,785,776,-4.79,-6.15,3.00,0.24,-0.61,4.27
2024-12-25 17:29:24,796,793,811,786,780,-10.52,-5.33,8.15,-0.45,-0.11,-1.94
2024-12-25 17:29:24,798,796,814,789,779,0.58,-6.89,3.16,-0.97,0.52,-4.15
2024-12-25 17:29:24,803,798,816,789,779,10.15,-7.41,5.41,0.08,-0.26,0.59
2024-12-25 17:29:24,798,795,814,786,778,-0.22,-8.06,3.01,0.50,-0.89,4.06
2024-12-25 17:29:24,794,794,810,786,779,-10.66,-4.21,7.31,0.22,0.46,0.35
2024-12-25 17:29:25,796,791,810,787,780,-0.82,-7.53,4.00,-0.61,0.35,-3.90
2024-12-25 17:29:25,795,784,793,774,778,8.51,-7.80,4.19,0.88,0.34,0.04
2024-12-25 17:29:25,794,781,788,771,779,-0.31,-6.42,5.31,0.89,-0.55,3.33
2024-12-25 17:29:25,791,782,788,770,780,-11.82,-5.72,9.34,0.39,0.31,-0.15
2024-12-25 17:29:25,784,780,787,769,778,-2.52,-5.76,5.84,-1.32,0.65,-3.00
2024-12-25 17:29:25,783,784,790,771,776,7.71,-6.90,6.81,1.06,-0.18,-0.83
2024-12-25 17:29:26,785,781,787,769,777,0.52,-6.31,5.41,0.04,-0.39,3.58
2024-12-25 17:29:26,783,781,789,773,779,-14.37,-4.32,7.46,0.29,1.16,0.64
2024-12-25 17:29:26,790,780,791,774,777,-2.72,-5.88,6.03,-1.31,0.23,-3.09
2024-12-25 17:29:26,795,784,791,775,777,6.55,-7.65,4.35,0.55,0.19,-2.19
2024-12-25 17:29:26,792,783,793,775,777,4.58,-7.37,6.30,0.14,-0.47,3.38
2024-12-25 17:29:27,790,784,794,777,776,-8.51,-2.01,5.66,0.33,0.83,3.20
2024-12-25 17:29:27,788,786,794,776,777,-4.72,-6.05,5.74,-0.54,0.10,-3.81
2024-12-25 17:29:27,797,787,798,780,777,5.86,-7.45,6.10,0.46,0.79,-2.41
2024-12-25 17:29:27,797,788,798,779,776,7.47,-6.60,6.68,-0.83,-0.58,2.29
2024-12-25 17:29:27,793,786,794,776,777,-4.53,-5.03,4.61,0.23,-0.24,4.87
2024-12-25 17:29:27,791,786,798,776,778,-7.47,-5.97,5.83,-0.41,-0.90,-3.61
2024-12-25 17:29:28,798,788,801,779,776,5.49,-7.73,2.55,-0.01,-0.11,-3.23
2024-12-25 17:29:28,798,790,800,779,776,7.55,-7.65,5.83,-0.42,0.07,2.67
2024-12-25 17:29:28,794,790,802,778,776,-5.11,-6.44,4.20,0.03,-0.16,4.55
2024-12-25 17:29:28,793,788,804,782,778,-12.44,-5.46,4.58,0.16,0.40,-2.51
2024-12-25 17:29:28,794,790,808,782,778,1.37,-6.96,4.09,0.65,0.25,-4.91
2024-12-25 17:29:29,796,790,798,779,777,10.56,-5.50,6.73,-0.24,0.60,1.69
2024-12-25 17:29:29,793,790,801,779,776,-1.92,-5.19,4.41,-0.68,-0.26,4.84
2024-12-25 17:29:29,792,788,802,780,776,-12.65,-6.73,5.24,0.01,0.38,-1.54
2024-12-25 17:29:29,795,789,804,780,776,1.53,-5.86,3.73,0.50,-0.55,-5.04
2024-12-25 17:29:29,800,792,805,782,776,12.19,-4.51,5.15,0.36,0.19,0.57
2024-12-25 17:29:30,796,790,803,778,776,0.57,-6.67,5.05,0.17,0.09,4.66
2024-12-25 17:29:30,791,788,802,779,776,-11.97,-5.86,7.40,0.12,-0.03,-0.21
2024-12-25 17:29:30,795,791,807,782,779,-2.01,-7.25,4.75,-1.47,0.47,-4.13
2024-12-25 17:29:30,798,791,805,782,773,10.33,-5.97,1.75,0.29,-0.75,-1.69
2024-12-25 17:29:30,797,790,804,781,774,3.92,-6.28,4.08,1.18,-0.11,3.98
2024-12-25 17:29:30,789,787,800,779,772,-13.86,-3.74,8.00,0.14,0.72,0.71
2024-12-25 17:29:31,790,787,801,778,772,-1.41,-6.79,5.01,-1.62,0.74,-4.23
2024-12-25 17:29:31,797,791,801,780,775,10.51,-5.55,2.33,0.16,-0.82,-1.83
2024-12-25 17:29:31,796,789,802,778,775,0.31,-8.10,4.27,1.27,-0.66,5.76
2024-12-25 17:29:31,792,787,802,778,777,-9.76,-5.16,9.17,-0.16,0.69,-0.40
2024-12-25 17:29:31,791,786,801,781,774,0.19,-7.52,4.39,-1.17,0.44,-3.86
2024-12-25 17:29:32,798,788,799,781,772,9.20,-8.89,3.33,1.88,0.56,0.50
2024-12-25 17:29:32,789,779,789,771,769,1.60,-6.22,6.71,0.89,-0.44,2.98
2024-12-25 17:29:32,789,781,787,771,769,-8.89,-7.50,8.27,-0.67,0.55,-0.34
2024-12-25 17:29:32,788,781,788,770,769,-1.23,-7.31,5.75,-0.85,0.69,-2.10
2024-12-25 17:29:32,793,783,792,772,773,6.24,-8.21,4.75,-0.23,0.40,-1.25
2024-12-25 17:29:32,793,782,790,772,772,3.66,-7.27,5.01,0.29,-1.16,2.87
2024-12-25 17:29:33,792,782,791,773,773,-12.28,-6.22,4.60,0.02,0.81,2.25
2024-12-25 17:29:33,790,782,790,774,772,-4.44,-6.34,5.43,-0.37,0.45,-3.31
2024-12-25 17:29:33,795,785,793,775,772,7.55,-7.02,5.14,0.18,0.23,-2.73
2024-12-25 17:29:33,797,786,794,774,772,3.59,-7.62,4.86,-0.00,-1.22,3.55
2024-12-25 17:29:33,789,785,792,775,771,-9.34,-5.30,5.14,0.30,0.29,2.89
2024-12-25 17:29:34,790,784,793,775,773,-6.07,-5.85,5.01,0.10,-0.49,-3.94
2024-12-25 17:29:34,796,788,795,776,773,8.39,-6.79,5.24,0.01,1.08,-2.77
2024-12-25 17:29:34,795,787,794,773,773,3.55,-6.97,5.07,-0.08,-0.70,3.68
2024-12-25 17:29:34,793,787,796,774,773,-9.78,-5.68,5.01,-0.45,0.56,2.86
2024-12-25 17:29:34,794,787,800,776,775,-5.81,-6.74,4.86,-0.31,0.16,-3.70
2024-12-25 17:29:35,792,789,800,776,774,7.59,-7.38,3.45,-0.07,0.19,-3.27
2024-12-25 17:29:35,793,788,799,776,773,6.19,-7.17,4.48,0.34,-0.61,2.48
2024-12-25 17:29:35,790,788,796,776,772,-4.30,-5.93,5.76,0.53,0.65,4.42
2024-12-25 17:29:35,788,785,795,775,773,-10.89,-6.20,6.91,-0.27,-0.49,-2.64
2024-12-25 17:29:35,791,789,800,777,774,2.34,-7.36,3.89,-1.25,0.67,-3.65
2024-12-25 17:29:35,792,792,801,779,773,8.57,-6.54,3.99,0.62,-0.74,-0.82
2024-12-25 17:29:36,793,790,802,777,773,1.77,-8.22,4.53,1.40,-0.05,5.44
2024-12-25 17:29:36,788,788,798,777,773,-11.84,-4.51,7.79,-0.14,0.55,0.53
2024-12-25 17:29:36,790,789,798,779,773,-1.13,-6.87,5.29,-0.91,0.44,-4.07
2024-12-25 17:29:36,796,790,805,783,772,8.70,-7.47,3.12,0.05,0.07,-1.75
2024-12-25 17:29:36,794,791,802,779,771,3.73,-7.88,4.29,0.69,-0.44,4.62
2024-12-25 17:29:37,790,789,803,778,774,-10.21,-3.26,5.78,0.28,0.17,2.59
2024-12-25 17:29:37,791,791,803,779,773,-5.47,-6.17,5.45,-0.93,0.69,-3.77
2024-12-25 17:29:37,794,794,808,783,773,8.06,-7.30,2.79,0.90,-0.61,-4.07
2024-12-25 17:29:37,797,793,806,781,773,7.04,-7.08,4.42,0.22,0.39,3.78
2024-12-25 17:29:37,792,791,803,780,775,-9.80,-3.81,5.31,0.94,1.87,4.62
2024-12-25 17:29:37,791,789,800,779,774,-4.04,-6.34,5.16,-1.40,0.53,-3.56
2024-12-25 17:29:38,795,789,799,777,776,7.57,-8.44,2.06,-0.02,0.77,-1.92
2024-12-25 17:29:38,792,782,791,773,774,4.19,-6.54,3.91,1.74,-1.38,3.19
2024-12-25 17:29:38,789,778,787,772,775,-11.13,-7.79,7.52,0.14,1.21,1.11
2024-12-25 17:29:38,788,779,789,772,776,-1.43,-7.22,6.61,-0.45,0.83,-2.58
2024-12-25 17:29:38,790,781,788,772,775,6.79,-7.43,4.74,-0.19,0.13,-1.09
2024-12-25 17:29:39,790,782,791,770,775,2.19,-7.24,6.27,0.62,-0.59,3.29
2024-12-25 17:29:39,789,783,792,772,775,-11.87,-7.14,5.06,-0.82,1.26,1.20
2024-12-25 17:29:39,789,784,791,773,774,-2.82,-5.96,5.50,0.04,-0.43,-3.40
2024-12-25 17:29:39,793,785,793,774,774,9.94,-6.57,5.04,0.04,-0.47,-1.76
2024-12-25 17:29:39,791,785,792,775,774,0.53,-6.52,5.36,0.66,0.07,4.42
2024-12-25 17:29:40,788,782,791,774,774,-11.48,-6.85,6.27,-0.03,-0.54,-0.93
2024-12-25 17:29:40,793,782,791,773,776,1.89,-7.07,4.13,-0.62,0.17,-3.48
2024-12-25 17:29:40,795,783,794,775,773,9.39,-7.42,3.48,0.72,-0.48,1.19
2024-12-25 17:29:40,795,784,792,772,773,-5.16,-6.30,6.48,-0.01,0.94,4.64
2024-12-25 17:29:40,793,781,793,774,775,-8.29,-6.06,5.89,0.26,-0.08,-2.35
2024-12-25 17:29:40,799,782,792,775,773,3.06,-7.29,4.39,0.08,0.53,-2.94
2024-12-25 17:29:41,800,781,794,774,772,8.39,-7.78,5.81,0.20,-0.65,1.54
2024-12-25 17:29:41,798,783,793,774,773,-5.74,-5.12,4.86,-0.27,0.53,4.32
2024-12-25 17:29:41,798,782,793,773,775,-12.22,-5.75,6.63,0.15,0.39,-1.46
2024-12-25 17:29:41,801,785,795,775,773,3.62,-6.21,3.53,-0.76,-0.12,-4.73
2024-12-25 17:29:41,801,784,796,776,770,8.53,-7.11,3.88,0.74,-0.33,2.17
2024-12-25 17:29:42,798,786,795,776,771,-4.89,-6.95,6.06,1.28,-0.20,4.68
2024-12-25 17:29:42,798,785,797,777,773,-9.75,-4.43,8.98,-0.20,0.31,-1.56
2024-12-25 17:29:42,795,786,799,780,772,0.76,-8.28,3.16,-1.30,1.49,-4.35
2024-12-25 17:29:42,800,790,797,778,772,10.14,-7.16,4.02,0.38,-0.22,0.48
2024-12-25 17:29:42,797,788,796,776,771,-1.81,-6.84,3.87,0.44,-0.82,4.15
2024-12-25 17:29:43,796,786,798,778,773,-11.63,-7.86,6.22,-0.27,0.37,-1.33
2024-12-25 17:29:43,795,788,801,781,773,1.09,-6.66,3.66,-0.39,0.56,-3.70
2024-12-25 17:29:43,801,789,801,778,773,9.79,-7.20,2.97,0.25,0.03,0.05
2024-12-25 17:29:43,799,788,801,779,774,3.31,-7.10,4.11,1.67,-0.84,4.14
2024-12-25 17:29:43,794,788,798,778,777,-13.30,-5.94,6.50,-0.29,-0.24,0.22
2024-12-25 17:29:43,794,787,800,777,775,-2.68,-6.81,5.70,-0.08,1.03,-3.01
2024-12-25 17:29:44,800,788,802,777,775,8.69,-7.11,6.03,-0.37,0.50,-2.04
2024-12-25 17:29:44,797,786,802,778,776,3.60,-6.73,5.32,0.76,-1.23,3.70
2024-12-25 17:29:44,796,787,800,776,776,-11.64,-6.41,5.64,-0.63,0.58,1.40
2024-12-25 17:29:44,797,788,801,777,775,-3.29,-6.76,5.13,0.04,0.65,-3.34
2024-12-25 17:29:44,799,790,802,779,775,9.28,-6.89,5.20,-0.03,0.07,-2.10
2024-12-25 17:29:45,800,788,802,779,777,3.12,-7.09,4.77,0.41,-1.21,4.05
2024-12-25 17:29:45,795,791,802,777,776,-11.76,-4.99,5.06,-0.57,0.55,2.34
2024-12-25 17:29:45,795,789,805,780,777,-3.62,-7.13,4.88,0.06,0.85,-4.19
2024-12-25 17:29:45,800,791,806,782,777,8.96,-6.98,3.85,-0.05,0.52,-2.11
2024-12-25 17:29:45,798,791,804,779,776,6.01,-6.91,3.97,0.69,-1.40,2.76
2024-12-25 17:29:45,795,791,803,778,776,-7.24,-7.15,5.53,-0.53,0.81,3.67
2024-12-25 17:29:46,796,791,805,779,776,-8.10,-7.14,5.36,-0.03,0.18,-2.73
2024-12-25 17:29:46,795,789,802,779,776,4.21,-7.60,4.30,0.46,0.94,-2.66
2024-12-25 17:29:46,796,784,793,773,774,8.50,-7.03,4.49,0.56,-0.81,1.51
2024-12-25 17:29:46,794,781,789,773,777,-5.42,-6.11,6.76,0.25,0.08,3.72
2024-12-25 17:29:46,793,780,788,771,776,-8.90,-6.70,6.18,0.27,-0.62,-2.06
2024-12-25 17:29:47,791,781,789,772,775,1.22,-5.97,6.51,-0.07,1.04,-3.12
2024-12-25 17:29:47,794,783,792,773,776,10.23,-6.64,6.72,0.45,-0.48,0.28
2024-12-25 17:29:47,793,782,791,771,775,-1.02,-5.73,7.78,-0.09,-0.37,4.08
2024-12-25 17:29:47,794,784,793,775,776,-10.92,-7.55,6.85,0.00,0.56,-0.33
2024-12-25 17:29:47,794,783,792,775,776,-0.27,-6.32,6.06,-0.69,1.02,-3.14
2024-12-25 17:29:48,798,786,796,776,776,9.54,-7.35,6.00,-0.06,0.12,-0.83
2024-12-25 17:29:48,795,785,794,775,775,2.97,-6.76,4.97,0.41,-1.48,4.18
2024-12-25 17:29:48,791,783,795,773,776,-11.89,-6.71,7.20,0.30,1.24,0.96
2024-12-25 17:29:48,792,783,795,776,774,-0.74,-6.39,5.33,-0.55,0.83,-3.37
2024-12-25 17:29:48,794,786,794,776,774,8.92,-7.18,6.21,0.28,-0.08,-1.02
2024-12-25 17:29:48,793,785,795,776,775,3.45,-6.85,5.24,0.33,-1.54,3.27
2024-12-25 17:29:49,789,786,795,776,776,-13.75,-6.03,6.03,0.09,0.37,0.80
2024-12-25 17:29:49,788,786,795,775,774,-2.96,-6.48,6.34,-0.11,0.63,-3.00
2024-12-25 17:29:49,792,786,798,777,776,6.88,-5.92,7.09,-0.03,0.05,-2.10
2024-12-25 17:29:49,793,784,796,774,775,4.85,-6.64,5.10,0.65,-1.15,3.48
2024-12-25 17:29:49,792,786,795,776,776,-11.55,-5.05,7.21,0.61,0.05,2.80
2024-12-25 17:29:50,793,786,797,775,774,-4.02,-4.84,6.31,0.04,-0.34,-3.65
2024-12-25 17:29:50,797,788,799,774,776,5.89,-6.92,5.36,-0.49,0.50,-2.74
2024-12-25 17:29:50,797,786,799,774,775,5.49,-7.28,5.10,-0.16,-0.78,3.56
2024-12-25 17:29:50,792,786,798,777,775,-12.95,-3.73,5.43,1.09,0.46,2.07
2024-12-25 17:29:50,791,784,796,774,775,-2.66,-5.58,7.23,-0.67,0.07,-3.48
2024-12-25 17:29:51,794,786,797,775,775,10.46,-4.92,6.72,0.53,-0.86,-2.93
2024-12-25 17:29:51,795,788,794,775,774,2.83,-6.23,5.74,0.35,-0.69,4.87
2024-12-25 17:29:51,793,785,797,775,775,-14.05,-5.11,6.57,-0.26,0.37,0.30
2024-12-25 17:29:51,793,789,799,777,775,0.15,-6.65,5.39,-0.65,0.32,-4.82
2024-12-25 17:29:51,796,794,801,776,772,12.50,-3.50,4.61,0.30,-0.17,0.23
2024-12-25 17:29:51,793,794,797,777,774,-1.08,-6.09,5.48,0.70,-0.52,5.93
2024-12-25 17:29:52,791,786,795,776,775,-12.15,-5.81,6.73,-0.16,-0.52,-1.73
2024-12-25 17:29:52,791,788,797,777,772,1.20,-6.18,5.57,0.30,0.34,-5.04
2024-12-25 17:29:52,795,791,798,777,773,11.38,-4.09,5.80,-0.47,0.24,0.93
2024-12-25 17:29:52,790,788,796,776,773,-0.80,-6.64,6.33,0.44,-0.42,4.97
2024-12-25 17:29:52,788,787,798,776,775,-9.82,-6.45,4.91,0.07,-0.38,-1.90
2024-12-25 17:29:53,789,787,796,776,775,3.14,-6.92,5.99,0.20,-0.32,-4.05
2024-12-25 17:29:53,793,789,795,776,774,10.66,-4.89,5.93,-0.22,0.20,1.37
2024-12-25 17:29:53,792,789,796,776,774,-2.08,-7.09,6.26,0.11,0.07,5.08
2024-12-25 17:29:53,787,785,796,775,775,-10.75,-4.88,6.39,-0.00,-0.69,-1.93
2024-12-25 17:29:53,788,787,799,776,776,1.87,-6.72,4.91,-0.20,-0.45,-4.82
2024-12-25 17:29:53,791,790,796,778,775,11.98,-3.79,4.45,0.45,0.23,0.16
2024-12-25 17:29:54,790,790,798,777,774,0.50,-6.63,6.17,0.42,1.85,5.40
2024-12-25 17:29:54,788,788,797,776,775,-12.06,-4.88,7.14,-0.15,-0.19,-0.39
2024-12-25 17:29:54,788,787,799,776,775,-0.99,-6.63,6.87,-0.06,0.16,-3.33
2024-12-25 17:29:54,792,791,800,779,773,7.14,-6.26,6.38,-0.09,0.05,-1.42
2024-12-25 17:29:54,789,789,800,777,774,3.94,-6.52,6.48,0.84,-0.87,3.43
2024-12-25 17:29:55,788,788,799,776,775,-10.50,-5.58,6.89,-0.91,2.05,0.98
2024-12-25 17:29:55,791,790,801,779,775,-0.15,-7.09,5.85,-0.28,-0.05,-4.10
2024-12-25 17:29:55,795,792,802,778,775,11.20,-4.87,4.48,0.55,-0.65,-0.04
2024-12-25 17:29:55,794,791,797,778,774,-1.67,-5.47,8.56,0.54,0.80,4.71
2024-12-25 17:29:55,790,789,795,778,774,-7.63,-8.35,4.06,-0.34,-0.72,-2.84
2024-12-25 17:29:56,793,786,795,777,775,6.86,-5.73,5.93,0.70,-0.04,-2.46
2024-12-25 17:29:56,789,783,793,774,774,6.40,-5.88,6.01,1.02,-0.23,2.59
2024-12-25 17:29:56,785,781,791,773,776,-8.41,-8.14,9.03,0.03,0.39,1.12
2024-12-25 17:29:56,782,782,790,773,776,-0.92,-6.38,7.95,-0.34,0.73,-2.02
2024-12-25 17:29:56,774,781,790,772,776,8.65,-5.09,6.58,0.02,0.22,-0.35
2024-12-25 17:29:56,772,781,791,772,776,-0.43,-4.98,8.04,0.01,-0.07,3.39
2024-12-25 17:29:57,777,782,789,773,777,-9.33,-7.44,7.58,-0.86,0.47,-0.78
2024-12-25 17:29:57,786,784,792,773,774,1.07,-7.18,5.64,-0.44,0.35,-4.28
2024-12-25 17:29:57,794,787,796,775,773,11.44,-4.82,4.16,0.17,-0.24,1.46
2024-12-25 17:29:57,791,788,795,776,775,-4.75,-7.92,4.58,-0.36,0.62,4.86
2024-12-25 17:29:57,790,787,796,778,775,-7.37,-7.02,4.45,0.09,-0.23,-2.82
2024-12-25 17:29:58,791,790,800,780,774,5.01,-7.29,4.54,1.08,-1.20,-3.94
2024-12-25 17:29:58,791,792,795,778,775,9.04,-5.14,5.06,0.95,0.07,2.07
2024-12-25 17:29:58,789,788,793,775,773,-5.72,-7.09,6.22,-1.12,2.51,5.05
2024-12-25 17:29:58,789,786,794,774,773,-6.05,-6.40,4.61,-0.38,0.60,-2.84
2024-12-25 17:29:58,791,791,797,775,775,5.91,-7.81,3.91,0.65,0.32,-3.71
2024-12-25 17:29:59,791,790,797,774,773,8.95,-6.60,4.12,0.31,-0.49,2.39
2024-12-25 17:29:59,790,790,796,775,774,-4.02,-6.88,7.05,0.55,1.17,4.58
2024-12-25 17:29:59,786,789,797,775,775,-7.98,-5.69,6.04,-0.07,-0.47,-2.80
2024-12-25 17:29:59,793,790,799,776,774,7.20,-6.71,4.70,-0.83,-0.05,-4.39
2024-12-25 17:29:59,794,792,800,776,774,9.55,-6.00,4.50,0.07,-0.26,2.37
2024-12-25 17:29:59,792,790,803,778,776,-3.01,-7.45,4.77,0.96,-0.07,4.92
2024-12-25 17:30:00,790,786,798,776,774,-10.08,-7.39,6.00,0.17,-0.66,-2.40
2024-12-25 17:30:00,793,788,803,778,775,3.24,-6.52,4.00,-0.98,0.29,-3.82
2024-12-25 17:30:00,795,790,805,780,775,11.46,-5.97,3.26,0.12,-0.08,1.13
2024-12-25 17:30:00,794,791,814,779,774,0.02,-7.46,4.94,0.92,-0.59,4.23
2024-12-25 17:30:00,791,791,813,781,776,-9.79,-8.03,5.02,-0.09,-0.80,-1.71
2024-12-25 17:30:01,795,790,811,782,774,2.12,-6.89,5.06,-0.54,0.99,-4.01
2024-12-25 17:30:01,796,797,816,785,775,10.87,-5.41,4.07,0.30,-0.18,0.63
2024-12-25 17:30:01,795,794,813,781,774,0.23,-7.99,5.83,1.07,-0.80,4.29
2024-12-25 17:30:01,790,791,808,780,776,-9.82,-7.28,5.54,-0.57,-0.28,-1.79
2024-12-25 17:30:01,794,792,811,782,777,3.31,-7.43,4.21,-0.43,0.63,-3.64
2024-12-25 17:30:01,791,793,811,782,774,10.73,-5.75,4.06,0.20,-0.20,0.64
2024-12-25 17:30:02,793,794,808,781,774,0.95,-7.77,4.64,0.71,-0.88,4.00
2024-12-25 17:30:02,788,785,796,776,776,-9.68,-7.85,5.15,0.63,-0.35,-0.90
2024-12-25 17:30:02,788,780,789,771,774,1.17,-7.44,5.80,-0.18,0.74,-2.78
2024-12-25 17:30:02,786,779,790,771,775,8.82,-6.85,5.86,0.15,-0.49,0.52
2024-12-25 17:30:02,789,781,789,772,776,1.24,-6.68,6.08,0.20,-1.25,3.70
2024-12-25 17:30:03,787,780,791,773,776,-14.98,-4.25,6.89,-0.03,0.40,1.05
2024-12-25 17:30:03,789,780,792,774,775,-6.15,-4.23,5.82,-0.33,1.04,-3.48
2024-12-25 17:30:03,792,782,795,773,775,8.38,-5.59,5.32,0.07,1.87,-3.36
2024-12-25 17:30:03,793,782,795,772,774,10.51,-7.97,5.82,0.18,-1.54,2.55
2024-12-25 17:30:03,791,782,793,773,774,-4.54,-4.08,7.51,-0.54,-1.05,4.10
2024-12-25 17:30:04,789,782,794,773,774,-16.45,-4.14,5.13,-0.08,0.55,0.08
2024-12-25 17:30:04,792,783,796,774,775,-4.16,-4.33,6.62,-0.10,1.19,-4.03
2024-12-25 17:30:04,793,784,799,776,775,11.66,-6.29,5.45,0.77,1.99,-2.52
2024-12-25 17:30:04,793,786,804,776,774,8.78,-7.35,5.14,0.03,-2.79,3.73
2024-12-25 17:30:04,794,786,805,780,774,-8.22,-2.80,6.08,-0.13,-0.40,4.40
2024-12-25 17:30:04,793,786,807,781,774,-16.95,-2.06,5.23,0.29,-0.11,-1.18
2024-12-25 17:30:05,794,787,810,780,774,-3.43,-3.88,5.50,-0.44,1.65,-4.21
2024-12-25 17:30:05,795,787,806,780,773,11.71,-5.59,5.67,0.41,1.78,-2.65
2024-12-25 17:30:05,794,785,806,779,773,9.83,-7.61,5.57,-0.03,-2.04,2.91
2024-12-25 17:30:05,793,785,802,780,774,-7.48,-2.65,5.61,0.36,-0.41,4.78
2024-12-25 17:30:05,789,785,802,779,772,-16.11,-3.03,7.22,-0.20,-0.25,-1.43
2024-12-25 17:30:06,792,785,807,781,773,-1.68,-4.88,4.46,-0.38,1.53,-3.88
2024-12-25 17:30:06,795,786,805,779,773,9.56,-6.88,6.49,0.53,1.37,-2.20
2024-12-25 17:30:06,794,789,805,780,772,9.60,-7.64,7.38,-0.14,-1.34,2.33
2024-12-25 17:30:06,796,788,806,781,773,-3.62,-2.92,4.66,-0.48,-0.61,4.48
2024-12-25 17:30:06,790,786,801,778,773,-18.89,-2.20,5.57,0.10,0.59,0.20
2024-12-25 17:30:07,793,788,804,780,773,-4.56,-4.10,5.40,-0.08,0.69,-3.85
2024-12-25 17:30:07,797,788,805,780,774,6.02,-7.43,5.23,0.25,1.85,-2.88
2024-12-25 17:30:07,796,788,804,779,773,11.03,-7.29,8.49,0.05,-1.09,0.42
2024-12-25 17:30:07,794,788,804,781,773,-1.04,-4.59,6.12,-0.26,-1.41,4.32
2024-12-25 17:30:07,794,789,804,779,774,-9.73,-6.37,6.17,0.48,-0.36,2.32
2024-12-25 17:30:07,792,789,805,780,774,-8.77,-5.65,4.95,0.46,0.02,-2.39
2024-12-25 17:30:08,795,789,807,781,774,2.83,-6.27,4.26,0.03,-0.04,-3.34
2024-12-25 17:30:08,795,788,806,781,772,9.14,-7.26,6.27,0.13,-0.13,0.04
2024-12-25 17:30:08,794,791,807,779,774,-0.03,-7.01,5.60,0.40,-0.07,3.07
2024-12-25 17:30:08,790,789,806,781,773,-9.68,-7.43,7.25,-0.32,0.47,-0.90
2024-12-25 17:30:08,792,790,803,780,774,0.89,-6.83,5.34,-0.45,0.07,-3.03
2024-12-25 17:30:09,796,790,806,780,774,8.54,-6.44,6.83,-0.09,-0.15,0.31
2024-12-25 17:30:09,794,790,802,779,772,-0.78,-7.28,5.78,0.26,-0.61,3.06
2024-12-25 17:30:09,790,786,795,775,772,-8.55,-8.23,5.54,-0.03,0.67,-1.30
2024-12-25 17:30:09,790,784,794,774,773,3.36,-7.35,4.70,-0.78,0.71,-2.30
2024-12-25 17:30:09,790,783,790,770,773,6.65,-7.05,5.38,0.52,-0.67,1.45
2024-12-25 17:30:09,791,782,788,769,771,-5.91,-7.25,6.81,-0.16,-0.04,2.46
2024-12-25 17:30:10,791,782,792,773,773,-4.84,-7.35,5.24,0.01,0.05,-2.78
