Timestamp,Flex1,Flex2,Flex3,Flex4,Flex5,AccelX,AccelY,AccelZ,GyroX,GyroY,GyroZ
2024-12-25 18:44:10,790,802,820,779,775,-5.24,1.01,8.84,-0.06,0.02,0.00
2024-12-25 18:44:10,791,798,822,779,774,-4.69,0.99,9.10,-0.03,-0.01,-0.02
2024-12-25 18:44:10,789,798,820,779,775,-5.00,1.01,8.98,-0.03,0.02,-0.01
2024-12-25 18:44:10,790,799,820,779,776,-4.85,1.00,9.04,-0.04,0.02,-0.01
2024-12-25 18:44:10,792,800,821,779,776,-4.86,0.94,8.99,-0.04,-0.01,-0.01
2024-12-25 18:44:10,789,798,820,779,773,-4.93,0.94,9.00,-0.04,0.06,-0.01
2024-12-25 18:44:10,789,798,820,781,775,-4.85,0.91,9.05,-0.04,0.00,-0.02
2024-12-25 18:44:10,791,798,820,780,775,-4.89,0.99,9.03,-0.03,0.06,-0.01
2024-12-25 18:44:10,790,797,818,780,775,-4.96,0.93,8.97,-0.05,0.01,-0.01
2024-12-25 18:44:10,790,800,819,779,775,-4.92,0.92,9.02,-0.04,0.02,-0.02
2024-12-25 18:44:10,789,799,819,780,774,-4.95,0.92,9.01,-0.05,0.05,-0.01
2024-12-25 18:44:10,790,798,821,779,775,-4.97,0.88,8.94,-0.04,0.03,-0.02
2024-12-25 18:44:10,791,798,820,780,774,-4.92,0.94,8.91,-0.04,0.00,-0.01
2024-12-25 18:44:10,791,798,820,780,775,-4.97,0.89,8.95,-0.04,0.02,-0.01
2024-12-25 18:44:10,791,798,820,779,775,-4.94,0.96,9.03,-0.04,0.05,-0.02
2024-12-25 18:44:10,791,798,819,781,776,-4.90,0.95,9.01,-0.05,0.08,-0.01
2024-12-25 18:44:10,790,798,820,779,775,-5.01,0.95,8.98,-0.03,0.01,-0.01
2024-12-25 18:44:10,790,797,820,779,775,-5.00,0.92,9.01,-0.04,0.01,-0.02
2024-12-25 18:44:10,790,798,822,781,776,-5.09,0.95,8.95,-0.03,0.03,-0.01
2024-12-25 18:44:10,790,797,819,778,773,-4.88,1.03,9.06,-0.03,0.02,-0.01
2024-12-25 18:44:10,790,797,818,778,775,-4.99,0.98,8.97,-0.03,-0.07,0.02
2024-12-25 18:44:10,790,798,817,779,774,-5.83,1.56,9.46,-0.19,-0.89,0.18
2024-12-25 18:44:10,789,798,816,777,775,-2.09,-1.98,11.03,-2.17,-0.23,-0.29
2024-12-25 18:44:10,789,800,818,777,773,-0.96,-4.17,8.14,0.35,1.16,0.16
2024-12-25 18:44:10,791,788,795,773,774,-1.88,-2.80,9.66,0.70,-0.44,0.12
2024-12-25 18:44:10,782,784,786,767,774,-3.57,1.05,9.90,-0.07,0.29,0.26
2024-12-25 18:44:10,778,783,782,766,774,-1.70,0.54,9.86,-0.06,-0.28,0.03
2024-12-25 18:44:10,778,782,785,761,772,-2.22,-0.19,10.24,-0.14,-0.24,-0.17
2024-12-25 18:44:10,775,781,785,763,768,-2.18,-0.45,9.98,0.14,0.09,-0.30
2024-12-25 18:44:10,775,782,783,763,767,-2.05,-0.13,10.39,0.12,-0.34,-0.11
2024-12-25 18:44:10,775,781,784,764,768,-2.36,-0.02,10.61,-0.04,0.10,0.06
2024-12-25 18:44:10,778,780,782,763,770,-2.27,-0.76,10.19,0.08,0.13,0.01
2024-12-25 18:44:10,777,781,784,763,771,-2.41,0.12,10.38,-0.05,0.08,0.07
2024-12-25 18:44:10,779,781,783,763,772,-2.77,-0.13,10.10,0.02,0.03,-0.04
2024-12-25 18:44:10,779,782,782,762,772,-2.93,-0.15,10.26,-0.11,0.12,0.04
2024-12-25 18:44:10,781,780,782,764,771,-2.77,-0.19,10.07,0.03,0.05,0.01
2024-12-25 18:44:10,780,781,784,765,772,-2.80,-0.03,10.13,-0.02,0.02,-0.02
2024-12-25 18:44:10,782,782,788,764,771,-2.92,-0.37,10.26,-0.05,0.07,-0.08
2024-12-25 18:44:10,782,782,785,765,771,-2.94,-0.19,10.39,-0.15,0.08,0.02
2024-12-25 18:44:10,780,781,787,764,772,-2.95,-0.37,9.65,-0.07,0.04,-0.02
2024-12-25 18:44:10,781,782,788,765,774,-2.93,-0.24,9.95,0.06,-0.06,-0.02
2024-12-25 18:44:10,780,782,788,765,771,-2.98,-0.23,10.29,-0.04,0.00,-0.02
2024-12-25 18:44:10,782,784,789,765,772,-2.97,-0.23,10.09,-0.11,0.07,-0.03
2024-12-25 18:44:10,781,784,788,765,771,-2.89,-0.35,10.03,-0.07,-0.01,-0.02
2024-12-25 18:44:10,780,782,789,764,772,-2.89,-0.34,9.94,0.07,0.05,0.01
2024-12-25 18:44:10,784,782,788,764,772,-2.86,-0.24,10.17,-0.03,-0.03,0.01
2024-12-25 18:44:10,781,784,787,764,771,-2.88,0.05,10.06,0.03,0.04,0.00
2024-12-25 18:44:10,782,781,785,765,771,-2.93,-0.22,10.22,-0.01,0.05,0.02
2024-12-25 18:44:10,784,783,786,765,772,-3.25,-0.31,9.75,-0.24,0.17,-0.05
2024-12-25 18:44:10,784,784,784,765,770,-3.44,-1.01,10.38,-0.19,-0.00,-0.06
2024-12-25 18:44:10,784,783,786,766,771,-3.18,-1.07,9.67,-0.10,-0.26,0.12
2024-12-25 18:44:10,784,783,788,764,771,-2.82,-0.48,10.01,0.08,-0.07,0.00
2024-12-25 18:44:10,786,785,787,767,772,-3.82,-0.84,9.81,-0.04,0.18,0.01
2024-12-25 18:44:10,787,783,790,766,770,-3.41,-0.68,9.98,0.04,0.07,-0.00
2024-12-25 18:44:10,784,783,787,765,771,-3.20,0.07,9.33,-0.03,0.08,-0.29
2024-12-25 18:44:10,787,784,789,764,772,-3.62,-0.65,9.93,-0.06,-0.04,-0.02
2024-12-25 18:44:10,790,785,787,766,771,-3.38,-0.74,9.96,-0.42,0.09,0.05
2024-12-25 18:44:10,790,785,789,768,771,-3.98,-1.52,9.95,0.01,-0.56,0.01
2024-12-25 18:44:10,792,788,790,767,771,-1.18,-0.26,11.08,0.27,0.02,-0.27
2024-12-25 18:44:10,794,787,790,768,772,-2.21,-0.85,10.48,0.04,0.09,0.12
2024-12-25 18:44:10,793,789,792,768,772,-2.24,-0.95,10.66,0.00,0.04,-0.01
2024-12-25 18:44:10,794,789,793,769,771,-1.95,-0.97,10.20,-0.04,0.12,0.02
2024-12-25 18:44:10,792,789,793,770,770,-2.22,-0.65,10.15,-0.05,-0.02,0.04
2024-12-25 18:44:10,793,788,794,769,771,-1.91,-0.87,10.57,-0.01,0.05,0.03
2024-12-25 18:44:10,794,789,796,769,771,-2.28,-0.62,10.19,-0.03,0.03,-0.01
2024-12-25 18:44:10,792,789,798,772,771,-2.26,-0.74,10.33,-0.00,0.07,0.00
2024-12-25 18:44:10,792,792,800,770,772,-2.53,-0.75,10.59,0.00,0.21,0.05
2024-12-25 18:44:10,792,790,799,769,772,-2.45,-0.39,9.94,-0.10,0.06,0.03
2024-12-25 18:44:10,794,792,798,771,771,-2.51,-0.69,10.30,0.00,0.00,-0.02
2024-12-25 18:44:10,795,791,800,771,770,-2.64,-0.87,10.49,-0.02,0.04,0.01
2024-12-25 18:44:10,792,789,799,772,772,-2.35,-0.66,10.00,-0.05,0.05,-0.03
2024-12-25 18:44:10,792,790,800,770,772,-2.41,-0.90,10.18,-0.02,0.03,-0.01
2024-12-25 18:44:10,793,790,800,770,772,-2.77,-0.91,10.34,-0.10,0.09,-0.01
2024-12-25 18:44:10,793,790,799,770,772,-2.27,-0.89,10.30,-0.04,0.06,-0.11
2024-12-25 18:44:10,793,790,798,770,772,-3.07,-0.88,10.14,0.04,0.17,0.00
2024-12-25 18:44:10,791,790,800,770,772,-2.71,-1.00,9.88,-0.06,-0.02,0.04
2024-12-25 18:44:10,794,789,798,772,771,-2.70,-0.81,10.21,-0.02,-0.04,-0.05
2024-12-25 18:44:10,791,789,800,770,772,-2.26,-1.00,10.10,-0.15,0.01,0.03
2024-12-25 18:44:10,791,789,798,770,771,-2.55,-1.15,10.13,0.05,0.12,0.00
2024-12-25 18:44:10,792,788,799,769,771,-2.70,-0.89,10.35,-0.03,0.06,0.03
2024-12-25 18:44:11,790,791,800,770,772,-2.64,-0.98,9.90,0.01,0.08,-0.01
2024-12-25 18:44:11,790,785,789,768,771,-2.60,-0.37,10.41,0.26,-0.07,0.02
2024-12-25 18:44:11,784,780,785,766,770,-2.56,0.09,10.04,0.09,0.01,-0.02
2024-12-25 18:44:11,784,778,782,765,774,-2.45,0.27,10.05,0.01,0.03,0.00
2024-12-25 18:44:11,784,780,784,765,774,-3.04,0.23,10.26,0.01,0.14,0.01
2024-12-25 18:44:11,784,779,783,766,772,-3.49,0.12,10.26,-0.05,0.06,0.12
2024-12-25 18:44:11,784,779,783,764,772,-3.01,0.33,9.82,-0.11,0.08,0.02
2024-12-25 18:44:11,784,780,784,764,772,-3.03,0.05,10.28,-0.10,0.16,0.04
2024-12-25 18:44:11,784,781,786,767,773,-3.12,0.09,9.74,-0.22,0.05,0.02
2024-12-25 18:44:11,784,783,789,767,773,-3.99,-0.44,9.93,0.17,0.01,-0.07
2024-12-25 18:44:11,785,782,787,766,773,-2.73,-0.03,10.53,0.03,0.16,-0.04
2024-12-25 18:44:11,786,783,788,767,773,-3.32,0.07,9.12,0.29,-0.25,0.07
2024-12-25 18:44:11,786,779,784,765,775,-2.26,1.37,10.32,0.12,0.06,0.03
2024-12-25 18:44:11,783,779,784,764,775,-2.44,1.04,10.02,-0.16,0.01,-0.07
2024-12-25 18:44:11,785,777,782,764,774,-2.80,0.84,10.24,-0.13,-0.06,-0.17
2024-12-25 18:44:11,786,779,784,766,773,-2.36,0.95,10.19,-0.08,0.09,0.04
2024-12-25 18:44:11,784,780,785,764,774,-2.64,0.78,10.20,-0.02,0.03,0.03
2024-12-25 18:44:11,786,780,786,766,774,-2.44,0.79,10.07,-0.07,0.02,-0.05
2024-12-25 18:44:11,787,781,785,768,774,-2.37,0.75,10.26,-0.08,0.03,0.00
2024-12-25 18:44:11,787,778,788,767,774,-2.32,0.78,10.21,0.03,0.02,-0.02
2024-12-25 18:44:11,784,780,789,767,774,-2.33,0.69,10.24,-0.07,0.03,-0.01
2024-12-25 18:44:11,787,781,789,769,775,-2.47,0.77,10.02,-0.01,-0.00,-0.02
2024-12-25 18:44:11,786,782,787,769,774,-2.13,0.68,10.41,-0.07,0.03,-0.05
2024-12-25 18:44:11,785,784,789,768,775,-2.37,0.77,10.16,-0.01,-0.01,-0.02
2024-12-25 18:44:11,786,783,788,768,774,-2.20,0.74,10.24,-0.03,0.03,-0.02
2024-12-25 18:44:11,784,783,791,768,774,-2.27,0.74,10.20,-0.05,0.03,-0.02
2024-12-25 18:44:11,784,783,787,767,775,-2.26,0.85,10.21,0.01,-0.03,-0.04
2024-12-25 18:44:11,785,783,786,769,775,-2.24,0.77,10.23,-0.01,0.03,-0.03
2024-12-25 18:44:11,786,783,789,768,772,-2.11,0.92,10.27,-0.02,0.00,-0.03
2024-12-25 18:44:11,783,782,784,766,774,-2.19,0.87,10.26,-0.02,0.01,-0.02
2024-12-25 18:44:11,786,783,789,769,774,-2.10,0.97,10.24,-0.02,-0.01,-0.01
2024-12-25 18:44:11,784,781,788,767,773,-2.12,0.93,10.24,-0.04,0.03,-0.00
2024-12-25 18:44:11,786,785,790,768,776,-2.05,0.91,10.31,-0.03,-0.02,-0.02
2024-12-25 18:44:11,784,783,789,767,775,-2.07,0.94,10.23,-0.03,0.01,-0.00
2024-12-25 18:44:11,788,783,789,767,773,-2.07,1.02,10.33,-0.04,0.04,-0.00
2024-12-25 18:44:11,786,783,791,768,775,-2.03,0.99,10.34,-0.02,0.03,-0.01
2024-12-25 18:44:11,786,783,788,769,773,-1.99,1.05,10.40,-0.02,-0.03,-0.01
2024-12-25 18:44:11,786,784,792,769,774,-2.01,0.97,10.31,-0.02,0.02,-0.03
2024-12-25 18:44:11,785,783,788,767,774,-1.99,0.98,10.24,-0.03,0.03,-0.00
2024-12-25 18:44:11,784,783,790,768,774,-1.88,1.12,10.47,-0.02,0.02,-0.02
2024-12-25 18:44:11,787,785,789,766,774,-1.90,1.05,10.24,-0.02,0.02,-0.02
2024-12-25 18:44:11,787,784,790,768,773,-1.91,1.08,10.35,-0.02,0.02,-0.01
2024-12-25 18:44:11,785,783,792,769,774,-2.06,1.02,10.27,-0.05,0.07,-0.02
2024-12-25 18:44:11,783,784,789,766,774,-2.04,1.03,10.11,-0.05,-0.02,-0.04
2024-12-25 18:44:11,787,785,791,770,774,-1.89,1.00,10.38,-0.09,0.03,0.01
2024-12-25 18:44:11,787,783,789,768,773,-1.90,1.03,10.38,-0.02,0.01,-0.03
2024-12-25 18:44:11,787,784,790,767,774,-1.87,1.05,10.28,-0.04,0.01,-0.01
2024-12-25 18:44:11,787,783,790,768,774,-1.83,1.02,10.35,-0.05,-0.01,-0.01
2024-12-25 18:44:11,788,783,790,768,774,-1.88,0.95,10.31,-0.03,0.02,-0.01
2024-12-25 18:44:11,787,786,792,770,774,-1.92,1.04,10.25,-0.02,0.00,0.00
2024-12-25 18:44:11,786,785,787,767,772,-1.90,1.02,10.38,-0.04,0.02,-0.02
2024-12-25 18:44:11,785,784,791,768,773,-1.88,1.01,10.28,-0.03,0.01,-0.01
2024-12-25 18:44:11,787,785,791,768,774,-1.74,1.04,10.32,-0.04,0.02,-0.02
2024-12-25 18:44:11,787,783,791,767,774,-1.82,1.06,10.35,-0.03,0.04,-0.01
2024-12-25 18:44:11,787,785,791,769,774,-1.76,1.12,10.42,-0.04,0.02,-0.02
2024-12-25 18:44:11,786,783,791,769,774,-1.76,1.08,10.39,-0.04,0.02,-0.03
2024-12-25 18:44:11,786,783,791,767,773,-1.82,1.14,10.31,-0.03,0.02,-0.01
2024-12-25 18:44:11,786,785,791,767,775,-1.71,1.13,10.37,-0.05,0.02,-0.02
2024-12-25 18:44:11,786,785,791,768,774,-1.72,1.04,10.33,-0.04,-0.01,0.00
2024-12-25 18:44:11,787,788,789,768,775,-1.88,1.07,10.43,-0.02,0.04,0.02
2024-12-25 18:44:11,787,782,792,768,774,-1.86,1.05,10.33,-0.04,0.05,-0.01
2024-12-25 18:44:11,786,784,791,769,772,-1.85,1.01,10.27,-0.04,0.02,-0.03
2024-12-25 18:44:11,786,783,792,769,775,-1.70,1.02,10.28,-0.02,0.03,-0.03
2024-12-25 18:44:11,785,782,790,768,773,-1.92,1.01,10.26,-0.03,0.02,-0.00
2024-12-25 18:44:11,788,784,791,768,775,-1.90,1.08,10.33,-0.03,0.01,-0.02
2024-12-25 18:44:11,786,783,791,769,772,-1.72,1.02,10.33,-0.02,0.00,-0.01
2024-12-25 18:44:11,788,784,791,766,773,-1.85,1.06,10.31,-0.02,0.02,-0.01
2024-12-25 18:44:11,787,784,791,769,774,-1.77,1.07,10.29,-0.03,0.02,-0.00
2024-12-25 18:44:11,785,783,791,767,773,-1.69,1.07,10.36,-0.03,0.04,0.00
2024-12-25 18:44:11,789,786,791,769,774,-1.74,1.04,10.36,-0.01,0.01,-0.02
2024-12-25 18:44:11,789,784,791,768,775,-1.78,1.09,10.33,-0.04,0.04,-0.01
2024-12-25 18:44:11,786,784,792,768,773,-1.64,1.07,10.38,-0.06,0.04,-0.01
2024-12-25 18:44:11,789,784,793,768,775,-1.64,1.03,10.47,-0.05,0.02,-0.02
2024-12-25 18:44:11,786,784,789,768,773,-1.87,0.75,10.39,-0.08,0.20,0.06
2024-12-25 18:44:11,789,783,786,769,773,-1.92,1.09,10.42,0.08,0.04,0.12
2024-12-25 18:44:11,787,783,787,770,772,-1.98,1.01,10.13,-0.13,0.08,-0.03
2024-12-25 18:44:11,787,783,788,768,772,-1.68,0.94,10.46,-0.06,0.01,-0.01
2024-12-25 18:44:11,786,784,790,767,773,-1.89,0.99,10.35,-0.03,0.02,-0.05
2024-12-25 18:44:11,787,785,792,769,774,-1.90,0.98,10.34,-0.04,0.02,-0.01
2024-12-25 18:44:11,788,785,790,768,772,-1.74,1.03,10.39,-0.02,0.01,-0.01
2024-12-25 18:44:11,787,783,792,769,773,-1.85,1.01,10.35,-0.03,0.02,-0.02
2024-12-25 18:44:11,785,784,791,769,773,-1.75,1.03,10.37,-0.03,0.01,-0.01
2024-12-25 18:44:11,786,785,793,769,773,-1.74,1.07,10.38,-0.03,0.01,-0.01
2024-12-25 18:44:11,786,786,792,769,773,-1.78,1.07,10.37,-0.05,0.03,-0.02
2024-12-25 18:44:11,786,783,793,767,774,-1.73,1.08,10.39,-0.03,0.02,-0.01
2024-12-25 18:44:11,787,787,795,769,774,-1.75,1.09,10.36,-0.05,0.04,-0.02
2024-12-25 18:44:11,784,783,792,766,774,-1.66,1.08,10.38,-0.04,0.02,-0.01
2024-12-25 18:44:11,786,784,795,769,774,-1.68,1.09,10.35,-0.03,0.02,-0.02
2024-12-25 18:44:11,785,785,794,768,773,-1.64,1.08,10.32,-0.02,0.00,-0.01
2024-12-25 18:44:11,788,784,793,770,773,-1.58,1.15,10.39,-0.05,0.03,-0.02
2024-12-25 18:44:11,788,784,794,770,773,-1.64,1.07,10.44,-0.02,0.00,-0.02
2024-12-25 18:44:11,786,785,795,769,773,-1.79,1.31,10.30,-0.10,0.06,-0.03
2024-12-25 18:44:11,789,785,794,770,774,-1.37,1.11,10.52,-0.02,-0.02,-0.05
2024-12-25 18:44:11,784,783,791,768,773,-1.79,0.86,10.18,-0.01,0.04,-0.01
2024-12-25 18:44:11,786,784,792,770,773,-1.43,1.28,10.55,-0.05,-0.01,-0.04
2024-12-25 18:44:11,786,785,791,767,774,-1.61,1.05,10.38,-0.06,0.03,-0.01
2024-12-25 18:44:11,786,783,790,768,775,-1.49,1.01,10.35,-0.06,0.03,-0.00
2024-12-25 18:44:11,786,783,790,766,773,-1.50,1.01,10.43,-0.03,0.02,-0.01
2024-12-25 18:44:11,787,783,790,770,772,-1.31,0.94,10.85,-0.00,0.03,-0.02
2024-12-25 18:44:11,783,784,793,769,774,-1.98,0.77,9.94,-0.01,0.07,0.03
2024-12-25 18:44:11,787,784,792,768,773,-1.64,0.66,10.42,-0.07,0.05,-0.03
2024-12-25 18:44:11,787,786,793,769,773,-1.54,0.81,10.31,-0.10,0.00,0.05
2024-12-25 18:44:11,787,785,793,769,776,-1.81,0.84,11.17,0.01,-0.06,0.00
2024-12-25 18:44:11,789,784,792,769,773,-1.24,0.45,9.99,-0.28,0.07,0.16
2024-12-25 18:44:11,788,785,791,769,772,-2.24,0.27,10.18,0.03,0.33,0.03
2024-12-25 18:44:11,790,786,793,769,773,-1.81,0.76,10.54,-0.11,0.22,0.14
2024-12-25 18:44:11,792,787,794,768,773,-2.39,0.00,10.14,-0.19,-0.04,0.03
2024-12-25 18:44:11,791,787,793,769,773,-2.11,0.47,10.04,-0.02,0.00,-0.01
2024-12-25 18:44:11,789,787,793,768,774,-2.06,0.39,10.23,-0.11,0.21,-0.02
2024-12-25 18:44:11,790,788,794,770,773,-2.54,0.12,10.44,-0.07,0.01,0.06
2024-12-25 18:44:11,792,787,794,769,772,-2.05,0.07,10.26,0.01,-0.05,-0.06
2024-12-25 18:44:11,791,788,793,769,773,-2.75,0.26,10.06,-0.05,-0.05,-0.04
2024-12-25 18:44:11,791,786,793,769,774,-2.48,0.20,10.09,0.03,0.04,-0.07
2024-12-25 18:44:11,792,788,793,769,774,-2.28,0.45,10.61,-0.07,0.01,-0.03
2024-12-25 18:44:11,791,788,795,769,773,-2.34,0.19,10.09,-0.09,-0.07,-0.03
2024-12-25 18:44:11,793,789,794,769,774,-2.70,0.41,10.13,-0.11,0.06,-0.01
2024-12-25 18:44:11,791,788,794,771,774,-2.44,0.33,10.40,0.09,0.04,-0.04
2024-12-25 18:44:11,791,787,792,769,773,-2.27,0.37,10.44,-0.06,-0.01,-0.07
2024-12-25 18:44:11,792,789,794,771,774,-1.98,-0.06,10.04,0.03,-0.12,-0.12
2024-12-25 18:44:11,791,787,794,769,773,-1.77,0.69,10.90,-0.03,-0.01,-0.02
2024-12-25 18:44:11,793,788,796,772,774,-2.12,0.15,10.11,0.03,0.01,0.00
2024-12-25 18:44:11,793,787,793,770,773,-1.92,0.13,10.11,0.00,-0.00,-0.02
2024-12-25 18:44:11,793,787,795,771,775,-1.61,0.45,10.58,-0.04,-0.02,-0.01
2024-12-25 18:44:11,792,787,795,770,773,-1.73,0.14,10.26,0.07,0.04,0.05
2024-12-25 18:44:11,791,787,794,770,773,-1.82,0.77,10.58,-0.01,0.08,0.04
2024-12-25 18:44:11,791,788,793,770,774,-1.93,0.55,10.29,-0.03,0.08,-0.00
2024-12-25 18:44:11,793,788,795,771,773,-1.93,0.72,10.42,-0.01,0.04,-0.00
2024-12-25 18:44:11,793,787,794,772,774,-2.06,0.72,10.29,-0.01,0.00,-0.01
2024-12-25 18:44:11,792,790,796,773,774,-1.93,0.68,10.50,-0.04,0.01,-0.03
2024-12-25 18:44:11,792,788,794,772,773,-1.74,0.42,10.43,0.00,0.06,-0.01
2024-12-25 18:44:11,790,789,796,770,773,-2.06,0.57,10.27,-0.08,0.06,-0.01
2024-12-25 18:44:11,793,787,796,769,774,-1.88,0.62,10.73,-0.02,0.08,-0.00
2024-12-25 18:44:11,791,788,795,770,772,-2.00,0.16,9.87,-0.40,0.21,0.04
2024-12-25 18:44:11,791,788,795,771,773,-2.32,0.21,10.26,-0.03,0.10,-0.05
2024-12-25 18:44:11,794,787,796,772,773,-2.32,-0.06,10.31,-0.12,-0.01,-0.04
2024-12-25 18:44:11,793,788,795,772,772,-1.84,0.06,9.80,-0.00,0.02,0.06
2024-12-25 18:44:11,794,789,796,771,774,-2.45,0.35,10.97,-0.02,0.04,0.02
2024-12-25 18:44:11,792,789,795,770,773,-2.41,0.24,10.12,-0.06,0.09,0.04
2024-12-25 18:44:11,790,790,796,770,772,-1.95,0.28,10.59,-0.60,-0.25,-0.01
2024-12-25 18:44:11,793,788,795,772,773,-2.39,-0.10,10.29,0.19,0.12,-0.05
2024-12-25 18:44:11,791,783,788,770,773,-2.67,0.38,10.01,0.70,0.20,-0.02
2024-12-25 18:44:11,791,781,788,767,772,-2.17,1.17,10.56,0.08,0.08,0.03
2024-12-25 18:44:11,789,782,786,767,772,-2.64,0.85,9.95,-0.10,0.01,0.03
2024-12-25 18:44:11,790,783,785,766,773,-2.60,1.83,11.13,-0.20,0.01,-0.07
2024-12-25 18:44:11,790,786,789,770,774,-2.68,-1.97,8.45,-0.13,0.23,-0.00
2024-12-25 18:44:11,790,782,788,768,773,-1.94,0.99,11.20,-0.17,0.05,-0.03
2024-12-25 18:44:11,791,781,786,768,773,-2.54,0.54,10.10,0.28,-0.13,0.05
2024-12-25 18:44:11,791,782,785,766,772,-2.15,0.93,10.49,-0.06,0.00,-0.05
2024-12-25 18:44:11,789,781,786,767,772,-2.21,0.90,10.53,-0.50,-0.12,-0.13
2024-12-25 18:44:11,790,783,789,768,773,-2.15,-0.37,10.23,-0.24,0.29,0.10
2024-12-25 18:44:11,790,783,788,769,773,-2.49,-0.43,10.31,-0.27,0.20,-0.05
2024-12-25 18:44:11,792,784,792,769,773,-1.66,-1.76,9.16,0.33,0.27,0.05
2024-12-25 18:44:11,792,787,792,771,773,-1.96,-1.94,9.30,-0.28,-0.07,-0.07
2024-12-25 18:44:11,793,785,791,769,773,-2.49,-0.37,10.52,0.20,0.04,0.11
2024-12-25 18:44:11,791,785,791,769,773,-3.14,0.61,10.22,0.32,0.38,0.10
2024-12-25 18:44:11,794,783,793,768,774,-2.86,0.60,10.13,-0.02,0.08,-0.05
2024-12-25 18:44:11,791,783,789,767,772,-2.42,-1.91,8.28,-0.57,0.01,-0.07
2024-12-25 18:44:11,791,785,790,767,772,-2.79,0.95,10.98,-0.05,-0.25,-0.09
2024-12-25 18:44:11,790,784,789,769,771,-2.77,0.97,10.37,-0.11,-0.18,-0.01
2024-12-25 18:44:11,790,783,787,766,773,-2.31,0.34,10.31,0.36,0.08,0.03
2024-12-25 18:44:11,791,784,785,764,772,-2.16,0.95,10.54,-0.20,-0.08,-0.05
2024-12-25 18:44:11,791,784,786,764,772,-2.23,-0.73,9.01,0.12,0.18,-0.04
2024-12-25 18:44:11,792,784,790,766,773,-1.84,0.67,11.09,-0.28,0.11,0.09
2024-12-25 18:44:11,792,785,788,765,773,-2.72,-0.11,9.76,0.26,-0.01,-0.05
2024-12-25 18:44:11,792,783,790,767,772,-2.26,0.37,10.27,-0.16,0.07,0.00
2024-12-25 18:44:11,794,785,791,767,772,-2.53,0.49,10.31,0.01,0.02,0.00
2024-12-25 18:44:11,792,785,790,767,772,-2.39,0.28,10.08,-0.03,-0.02,-0.02
2024-12-25 18:44:11,793,786,791,767,773,-2.42,0.35,10.24,-0.08,0.05,-0.03
2024-12-25 18:44:11,790,785,790,767,772,-2.28,0.44,9.86,0.19,0.04,-0.07
2024-12-25 18:44:11,786,783,784,764,771,-2.55,0.55,10.06,0.12,-0.00,0.12
2024-12-25 18:44:11,781,783,785,765,772,-2.62,0.84,10.42,0.10,0.01,-0.23
2024-12-25 18:44:11,782,782,784,767,772,-2.29,0.92,10.39,-0.01,0.01,0.02
2024-12-25 18:44:11,781,780,783,764,772,-1.96,0.54,10.22,-0.07,0.07,0.01
2024-12-25 18:44:11,783,781,783,765,774,-2.28,0.89,10.20,0.03,0.05,0.10
2024-12-25 18:44:11,780,781,786,765,773,-2.39,0.90,10.23,-0.02,0.02,-0.01
2024-12-25 18:44:11,782,780,784,763,772,-2.25,0.92,10.37,-0.02,0.02,-0.01
2024-12-25 18:44:11,782,781,786,765,772,-2.38,0.79,10.09,-0.07,0.04,-0.04
2024-12-25 18:44:11,783,780,785,766,772,-2.51,0.77,10.09,0.06,0.30,0.06
2024-12-25 18:44:11,782,779,784,765,775,-3.19,1.19,10.05,0.01,0.20,-0.10
2024-12-25 18:44:11,782,780,784,764,776,-2.71,1.13,10.17,-0.06,0.01,-0.01
2024-12-25 18:44:11,783,779,782,764,775,-2.89,1.11,9.90,-0.01,-0.11,-0.08
2024-12-25 18:44:11,782,779,782,764,773,-2.59,1.08,10.15,-0.08,0.00,-0.03
2024-12-25 18:44:11,786,780,786,763,774,-2.94,0.82,10.32,-0.31,-0.03,-0.01
2024-12-25 18:44:11,785,784,786,765,772,-3.88,-1.93,10.33,-2.09,0.29,0.18
2024-12-25 18:44:11,788,788,789,769,771,0.14,-2.53,11.84,-1.76,-1.53,0.67
2024-12-25 18:44:11,788,787,796,767,768,0.17,-7.03,8.94,-2.27,-0.08,0.91
2024-12-25 18:44:12,789,784,800,769,766,-2.13,-7.21,3.97,-2.09,-0.30,1.16
2024-12-25 18:44:12,787,783,792,771,763,-3.22,-8.39,2.33,-0.74,-0.24,0.84
2024-12-25 18:44:12,788,780,786,769,764,-5.16,-7.83,1.92,-0.18,-0.24,0.63
2024-12-25 18:44:12,819,778,784,769,764,-5.19,-7.87,2.14,-0.29,0.02,0.09
2024-12-25 18:44:12,831,777,783,768,763,-5.04,-7.85,1.91,-0.11,0.11,-0.02
2024-12-25 18:44:13,827,776,783,769,764,-5.53,-7.77,2.03,-0.04,0.07,-0.00
2024-12-25 18:44:13,819,778,784,770,763,-5.63,-8.02,1.68,0.01,0.25,-0.05
2024-12-25 18:44:13,818,777,782,771,763,-5.57,-7.88,1.39,-0.10,0.13,0.03
2024-12-25 18:44:13,822,777,785,771,764,-5.61,-7.63,1.03,-0.08,0.08,-0.02
2024-12-25 18:44:13,826,778,786,770,764,-5.67,-7.77,1.07,-0.07,0.03,-0.04
2024-12-25 18:44:13,830,777,786,771,762,-5.67,-7.71,1.13,-0.05,0.00,-0.03
2024-12-25 18:44:14,836,778,785,770,764,-5.72,-7.94,0.99,-0.03,0.05,0.00
2024-12-25 18:44:14,835,776,786,771,763,-5.57,-7.81,0.69,-0.09,-0.00,0.01
2024-12-25 18:44:14,834,777,785,771,764,-5.66,-7.74,0.79,-0.04,0.00,-0.03
2024-12-25 18:44:14,833,777,784,771,764,-5.78,-7.90,0.48,-0.06,0.19,-0.01
2024-12-25 18:44:14,831,777,785,772,762,-5.50,-7.82,0.42,-0.04,0.07,-0.01
2024-12-25 18:44:15,833,778,787,772,762,-6.00,-8.69,0.58,-0.10,0.14,0.15
2024-12-25 18:44:15,829,777,786,770,763,-5.59,-6.83,-0.17,-0.19,0.16,0.26
2024-12-25 18:44:15,828,777,787,770,763,-6.09,-7.06,-0.76,-0.19,-0.06,-0.07
2024-12-25 18:44:15,827,777,786,769,763,-5.67,-7.57,-0.46,-0.08,-0.13,-0.19
2024-12-25 18:44:15,827,777,788,769,764,-5.54,-7.78,-0.17,0.06,-0.04,-0.10
2024-12-25 18:44:16,829,777,787,770,763,-6.16,-7.56,0.64,0.03,-0.01,0.18
2024-12-25 18:44:16,829,777,788,773,764,-5.84,-8.01,0.37,0.17,0.33,-0.23
2024-12-25 18:44:16,827,776,786,770,763,-6.18,-8.18,0.11,0.03,0.11,-0.04
2024-12-25 18:44:16,827,777,788,770,764,-5.53,-7.88,0.46,-0.18,-0.14,-0.04
2024-12-25 18:44:16,827,777,786,770,764,-5.66,-7.86,0.76,-0.04,-0.09,-0.05
2024-12-25 18:44:16,827,778,787,770,763,-5.56,-7.79,0.65,-0.08,0.06,-0.12
2024-12-25 18:44:17,827,777,785,768,764,-5.85,-8.04,0.34,0.00,-0.04,-0.10
2024-12-25 18:44:17,827,776,788,769,763,-5.14,-8.07,0.40,-0.05,0.06,-0.05
2024-12-25 18:44:17,825,778,786,769,763,-5.68,-8.29,0.57,-0.05,0.06,-0.01
2024-12-25 18:44:17,826,776,786,768,764,-5.38,-7.99,0.46,-0.04,-0.09,0.07
2024-12-25 18:44:17,826,777,787,768,763,-5.71,-7.95,0.57,0.00,-0.02,0.08
2024-12-25 18:44:18,828,778,787,770,764,-5.51,-7.71,0.55,-0.14,-0.07,-0.01
2024-12-25 18:44:18,824,776,788,767,763,-6.18,-7.73,0.52,-0.25,0.08,-0.03
2024-12-25 18:44:18,828,777,786,769,763,-5.56,-7.50,-0.00,-0.03,0.13,0.01
2024-12-25 18:44:18,825,776,786,768,765,-5.61,-7.86,-0.16,-0.01,0.09,-0.07
2024-12-25 18:44:18,827,776,788,770,765,-5.60,-7.85,-0.09,-0.12,0.12,-0.01
2024-12-25 18:44:19,826,776,787,769,765,-5.71,-7.87,-0.43,0.00,0.25,-0.01
2024-12-25 18:44:19,828,776,786,772,763,-5.44,-7.90,-0.47,0.01,0.02,-0.01
2024-12-25 18:44:19,825,776,785,770,763,-5.45,-7.91,-0.46,-0.07,0.02,-0.08
2024-12-25 18:44:19,826,776,786,771,762,-5.53,-7.94,-0.45,-0.07,-0.03,-0.01
2024-12-25 18:44:19,827,776,785,769,763,-5.43,-7.86,-0.57,-0.01,0.06,0.02
2024-12-25 18:44:19,828,776,787,772,763,-5.63,-7.95,-0.59,-0.10,0.07,-0.02
2024-12-25 18:44:20,826,778,792,772,762,-5.68,-8.11,-0.28,0.12,0.23,0.23
2024-12-25 18:44:20,828,777,792,772,763,-5.78,-7.45,-0.27,0.26,0.14,0.20
2024-12-25 18:44:20,825,776,791,772,764,-5.85,-7.44,-0.41,0.37,0.53,0.21
2024-12-25 18:44:20,827,777,789,770,762,-6.03,-7.26,-0.74,0.06,0.01,0.04
2024-12-25 18:44:20,823,778,790,771,762,-6.23,-7.15,-0.65,-0.13,-0.03,-0.05
2024-12-25 18:44:21,824,776,787,771,763,-6.37,-7.25,-0.41,-0.21,-0.03,-0.10
2024-12-25 18:44:21,824,778,791,772,764,-5.97,-7.30,-0.79,-0.21,-0.05,-0.14
2024-12-25 18:44:21,824,778,789,771,762,-5.74,-7.56,-0.87,-0.23,-0.22,-0.17
2024-12-25 18:44:21,824,777,788,771,763,-5.84,-7.76,-0.59,-0.14,-0.32,-0.21
2024-12-25 18:44:21,825,776,791,770,765,-5.56,-8.00,-0.32,-0.19,-0.16,-0.15
2024-12-25 18:44:22,826,778,791,769,763,-5.43,-7.79,-0.34,-0.03,0.08,0.02
2024-12-25 18:44:22,827,778,790,772,765,-5.52,-7.86,-0.71,-0.01,-0.01,0.00
2024-12-25 18:44:22,824,777,790,772,763,-5.53,-7.82,-0.56,-0.09,-0.02,-0.06
2024-12-25 18:44:22,827,778,790,773,763,-5.52,-7.96,-0.51,-0.02,-0.02,-0.02
2024-12-25 18:44:22,825,779,790,769,763,-5.54,-7.92,-0.57,-0.08,-0.03,-0.04
2024-12-25 18:44:23,827,775,789,769,765,-5.42,-7.79,-0.46,-0.01,-0.00,-0.02
2024-12-25 18:44:23,826,778,793,770,763,-5.49,-7.92,-0.46,-0.06,0.03,-0.00
2024-12-25 18:44:23,824,778,792,772,763,-5.51,-7.98,-0.36,-0.01,-0.06,-0.03
2024-12-25 18:44:23,825,777,789,771,763,-5.37,-7.94,-0.35,-0.07,-0.02,-0.03
2024-12-25 18:44:23,829,777,792,770,763,-5.38,-7.88,-0.37,-0.03,0.06,-0.02
2024-12-25 18:44:23,827,778,791,771,763,-5.52,-8.01,-0.49,-0.02,-0.04,-0.10
2024-12-25 18:44:24,829,778,791,771,763,-5.15,-8.11,-0.31,-0.06,0.05,-0.02
2024-12-25 18:44:24,828,778,789,771,763,-5.19,-8.19,-0.32,-0.02,0.03,-0.03
2024-12-25 18:44:24,827,778,792,771,764,-5.13,-8.11,-0.34,-0.03,0.03,-0.03
2024-12-25 18:44:24,828,779,791,771,763,-5.01,-8.30,-0.21,-0.05,0.04,-0.05
2024-12-25 18:44:24,830,777,791,770,762,-5.09,-8.34,-0.19,0.01,0.07,0.02
2024-12-25 18:44:25,826,779,790,769,763,-5.26,-8.15,-0.19,-0.03,0.00,0.06
2024-12-25 18:44:25,827,779,791,772,765,-5.24,-8.08,-0.18,-0.07,0.03,-0.02
2024-12-25 18:44:25,827,777,791,770,763,-5.39,-8.16,-0.13,-0.01,0.07,0.06
2024-12-25 18:44:25,828,776,790,771,764,-5.32,-7.89,-0.43,-0.08,0.03,0.04
2024-12-25 18:44:25,828,778,790,770,763,-5.51,-7.79,-0.40,-0.08,0.03,0.00
2024-12-25 18:44:26,825,776,789,769,763,-5.41,-7.86,-0.32,-0.02,0.07,0.02
2024-12-25 18:44:26,825,778,792,770,763,-5.43,-7.98,-0.40,-0.03,0.04,-0.04
2024-12-25 18:44:26,828,779,791,772,763,-5.33,-7.96,-0.51,-0.04,0.04,-0.01
2024-12-25 18:44:26,827,777,793,772,763,-5.40,-7.94,-0.48,-0.06,0.04,-0.03
2024-12-25 18:44:26,826,777,793,770,765,-5.41,-7.93,-0.50,-0.06,0.03,-0.03
2024-12-25 18:44:27,825,779,791,771,763,-5.38,-7.94,-0.55,-0.04,0.01,-0.02
2024-12-25 18:44:27,828,778,792,771,763,-5.24,-7.92,-0.60,-0.06,0.02,-0.01
2024-12-25 18:44:27,828,777,792,771,762,-5.37,-7.98,-0.49,-0.04,0.03,-0.01
2024-12-25 18:44:27,827,780,792,773,762,-5.33,-7.95,-0.55,-0.03,0.03,-0.00
2024-12-25 18:44:27,826,778,792,770,764,-5.37,-7.89,-0.57,-0.04,0.03,-0.03
2024-12-25 18:44:27,828,777,792,772,764,-5.25,-8.02,-0.50,-0.03,0.02,-0.04
2024-12-25 18:44:28,828,777,791,770,762,-5.27,-8.04,-0.50,-0.03,0.02,-0.02
2024-12-25 18:44:28,828,779,792,770,765,-5.27,-8.09,-0.48,-0.06,0.03,0.00
2024-12-25 18:44:28,826,778,793,769,763,-5.26,-7.96,-0.65,-0.05,0.02,-0.00
2024-12-25 18:44:28,827,778,793,773,764,-5.37,-7.96,-0.61,-0.07,0.00,-0.03
2024-12-25 18:44:28,826,776,791,771,764,-5.34,-8.02,-0.54,-0.04,0.03,-0.02
2024-12-25 18:44:29,829,779,793,771,765,-5.29,-7.99,-0.53,-0.03,0.02,-0.01
2024-12-25 18:44:29,826,777,791,770,764,-5.29,-7.98,-0.57,-0.04,0.01,-0.01
2024-12-25 18:44:29,826,778,792,770,763,-5.26,-8.02,-0.53,-0.05,0.02,-0.01
2024-12-25 18:44:29,828,779,793,771,764,-5.32,-8.00,-0.51,-0.04,0.03,-0.01
2024-12-25 18:44:29,827,778,794,771,763,-5.31,-7.97,-0.60,-0.04,0.02,-0.01
2024-12-25 18:44:30,827,777,794,769,762,-5.23,-8.06,-0.62,-0.07,0.00,-0.02
2024-12-25 18:44:30,826,779,793,771,763,-5.31,-8.01,-0.54,-0.04,0.03,0.00
2024-12-25 18:44:30,827,777,793,771,764,-5.23,-7.94,-0.63,-0.05,0.02,-0.01
2024-12-25 18:44:30,827,777,794,772,763,-5.39,-8.04,-0.61,-0.05,0.03,-0.01
2024-12-25 18:44:30,828,777,792,769,764,-5.28,-7.89,-0.64,-0.07,0.02,0.02
2024-12-25 18:44:30,825,778,792,771,765,-5.32,-7.94,-0.68,-0.06,0.03,-0.04
2024-12-25 18:44:31,825,776,792,770,762,-5.33,-7.98,-0.63,-0.03,0.03,-0.01
2024-12-25 18:44:31,826,779,793,771,765,-5.33,-7.99,-0.67,-0.04,0.01,-0.03
2024-12-25 18:44:31,826,777,795,772,764,-5.30,-7.99,-0.66,-0.05,0.03,-0.01
2024-12-25 18:44:31,825,777,794,771,762,-5.32,-7.97,-0.71,-0.03,0.02,-0.02
2024-12-25 18:44:31,826,778,793,770,764,-5.33,-8.04,-0.68,-0.06,0.02,-0.02
2024-12-25 18:44:32,826,778,794,772,763,-5.24,-7.96,-0.70,-0.05,0.00,-0.02
2024-12-25 18:44:32,825,777,793,771,763,-5.29,-8.03,-0.74,-0.03,0.02,0.01
2024-12-25 18:44:32,824,779,794,771,764,-5.24,-7.95,-0.74,-0.03,0.03,-0.01
2024-12-25 18:44:32,828,778,793,771,763,-5.28,-8.00,-0.74,-0.03,0.03,-0.01
2024-12-25 18:44:32,826,778,793,771,763,-5.30,-8.01,-0.73,0.02,0.04,0.01
2024-12-25 18:44:33,828,776,791,770,764,-5.40,-7.89,-0.62,0.19,0.11,0.07
2024-12-25 18:44:33,822,775,785,767,763,-5.41,-7.86,-0.16,0.25,0.09,0.05
2024-12-25 18:44:33,821,771,784,765,763,-5.67,-7.83,0.24,0.18,0.04,0.04
2024-12-25 18:44:33,820,771,782,763,763,-5.61,-7.85,0.21,-0.06,-0.01,-0.01
2024-12-25 18:44:33,823,773,783,766,763,-5.69,-7.85,0.22,-0.03,-0.03,-0.00
2024-12-25 18:44:34,824,772,780,764,762,-5.55,-7.87,0.26,-0.12,-0.00,-0.03
2024-12-25 18:44:34,824,773,784,767,762,-5.54,-7.91,0.25,-0.05,0.06,-0.01
2024-12-25 18:44:34,821,772,781,763,762,-5.60,-7.80,0.11,-0.07,0.03,-0.02
2024-12-25 18:44:34,825,773,784,766,762,-5.57,-7.97,0.13,-0.09,0.01,-0.05
2024-12-25 18:44:34,825,773,784,766,762,-5.49,-7.97,0.07,-0.03,0.03,-0.00
2024-12-25 18:44:34,827,772,786,766,763,-5.52,-7.89,-0.05,-0.11,0.03,-0.02
2024-12-25 18:44:35,826,772,785,767,763,-5.57,-7.88,-0.09,-0.08,0.06,0.01
2024-12-25 18:44:35,825,774,785,766,762,-5.51,-7.80,-0.25,-0.09,0.05,-0.01
2024-12-25 18:44:35,827,775,787,766,764,-5.50,-7.85,-0.23,-0.05,0.05,-0.02
2024-12-25 18:44:35,826,774,785,768,762,-5.55,-7.88,-0.28,-0.05,0.03,-0.01
2024-12-25 18:44:35,824,774,786,766,763,-5.51,-7.86,-0.27,-0.05,0.03,-0.01
2024-12-25 18:44:36,826,774,787,767,763,-5.57,-7.91,-0.32,-0.05,0.03,-0.02
2024-12-25 18:44:36,824,773,788,767,762,-5.47,-7.88,-0.30,-0.05,0.01,-0.02
2024-12-25 18:44:36,827,773,787,768,763,-5.45,-7.91,-0.35,-0.06,0.03,-0.03
2024-12-25 18:44:36,826,773,786,767,763,-5.39,-7.92,-0.38,-0.05,0.01,-0.02
2024-12-25 18:44:36,826,774,788,767,763,-5.48,-7.81,-0.39,-0.07,0.03,-0.03
2024-12-25 18:44:37,824,774,785,765,762,-5.54,-8.02,-0.47,-0.05,0.08,-0.00
2024-12-25 18:44:37,826,775,787,767,763,-5.47,-7.89,-0.51,-0.08,0.03,-0.02
2024-12-25 18:44:37,826,775,786,766,763,-5.18,-7.83,-0.71,-0.04,0.11,0.02
2024-12-25 18:44:37,825,773,787,767,761,-5.45,-7.89,-0.64,0.01,0.06,-0.06
2024-12-25 18:44:37,823,772,783,765,762,-5.42,-7.85,-0.60,-0.01,0.00,0.02
2024-12-25 18:44:37,824,772,782,766,762,-5.34,-7.86,-0.59,-0.07,0.08,-0.03
2024-12-25 18:44:38,824,772,784,765,762,-5.32,-7.75,-0.79,0.03,0.14,0.06
2024-12-25 18:44:38,822,773,783,765,762,-5.41,-7.85,-0.66,0.05,0.05,0.01
2024-12-25 18:44:38,824,772,786,766,764,-5.33,-7.85,-0.33,0.00,0.02,-0.02
2024-12-25 18:44:38,823,774,784,766,763,-5.52,-7.98,-0.14,-0.03,-0.06,-0.10
2024-12-25 18:44:38,825,773,786,765,762,-5.49,-7.94,-0.62,-0.06,0.01,0.02
2024-12-25 18:44:39,824,774,783,765,762,-5.39,-7.85,-0.45,-0.00,0.04,-0.01
2024-12-25 18:44:39,824,774,786,766,762,-5.46,-7.84,-0.39,0.00,0.00,-0.03
2024-12-25 18:44:39,824,772,785,765,762,-5.44,-7.95,-0.28,-0.04,0.03,-0.04
2024-12-25 18:44:39,822,772,786,766,762,-5.40,-7.96,-0.50,-0.08,0.00,-0.02
2024-12-25 18:44:39,824,774,785,766,762,-5.33,-8.04,-0.53,-0.12,0.07,-0.01
2024-12-25 18:44:40,826,775,789,765,763,-5.23,-8.16,-0.72,-0.14,-0.05,-0.06
2024-12-25 18:44:40,825,773,788,766,762,-5.28,-7.93,-0.87,-0.01,0.04,0.04
2024-12-25 18:44:40,827,775,789,766,763,-5.14,-7.67,-1.19,-0.18,0.01,0.20
2024-12-25 18:44:40,825,773,787,766,763,-5.34,-7.65,-0.84,-0.15,0.07,0.01
2024-12-25 18:44:40,823,774,788,765,763,-5.52,-7.62,-0.71,-0.13,-0.07,0.02
2024-12-25 18:44:40,824,773,788,766,764,-5.59,-7.77,-0.79,-0.08,0.02,0.01
2024-12-25 18:44:41,827,775,788,766,763,-5.81,-7.70,-0.84,-0.08,0.16,-0.04
2024-12-25 18:44:41,826,774,785,764,762,-5.51,-7.75,-0.90,-0.09,0.00,-0.01
2024-12-25 18:44:41,828,773,788,766,763,-5.70,-7.71,-0.73,-0.12,0.07,-0.06
2024-12-25 18:44:41,825,772,788,767,761,-5.44,-7.79,-0.63,-0.01,-0.05,-0.06
2024-12-25 18:44:41,827,776,790,769,763,-5.61,-7.86,-0.53,-0.11,0.09,-0.05
2024-12-25 18:44:42,826,774,787,764,763,-5.33,-7.66,-0.99,-0.08,0.07,-0.04
2024-12-25 18:44:42,827,773,789,769,764,-5.40,-8.10,-1.05,-0.14,-0.09,-0.10
2024-12-25 18:44:42,831,775,786,765,762,-5.31,-7.80,-0.82,0.06,-0.06,0.04
2024-12-25 18:44:42,828,774,789,766,763,-5.30,-7.77,-0.97,-0.04,0.04,-0.04
2024-12-25 18:44:42,830,773,787,766,763,-5.54,-7.94,-0.92,-0.02,0.20,0.04
2024-12-25 18:44:43,829,776,787,767,764,-5.32,-7.85,-0.92,-0.03,0.08,0.01
2024-12-25 18:44:43,827,773,786,765,763,-5.38,-7.88,-1.10,-0.03,0.15,-0.01
2024-12-25 18:44:43,826,774,787,766,764,-5.36,-7.75,-1.12,0.07,0.11,0.09
2024-12-25 18:44:43,823,774,787,766,763,-5.51,-7.78,-1.25,-0.11,0.02,-0.05
2024-12-25 18:44:43,827,775,787,766,763,-5.21,-7.40,-1.44,-0.16,-0.07,-0.06
2024-12-25 18:44:44,824,774,785,763,762,-5.28,-7.88,-1.33,0.05,0.02,-0.07
2024-12-25 18:44:44,826,774,787,766,762,-5.31,-7.92,-1.13,-0.02,0.02,0.00
2024-12-25 18:44:44,825,773,785,767,762,-5.32,-7.85,-1.16,-0.06,0.02,-0.02
2024-12-25 18:44:44,825,774,784,766,763,-5.43,-7.86,-1.10,-0.02,0.07,0.05
2024-12-25 18:44:44,822,773,788,765,763,-5.37,-7.76,-1.08,0.00,0.05,-0.02
2024-12-25 18:44:44,824,773,783,766,762,-5.37,-7.73,-1.14,-0.03,-0.01,-0.01
2024-12-25 18:44:45,821,772,784,764,762,-5.44,-7.85,-0.95,-0.02,0.03,0.01
2024-12-25 18:44:45,824,774,782,764,763,-5.42,-7.74,-1.14,0.02,0.08,0.02
2024-12-25 18:44:45,826,775,788,766,764,-5.40,-7.80,-1.18,-0.10,0.03,-0.04
2024-12-25 18:44:45,823,775,787,767,762,-5.40,-7.79,-1.12,-0.08,-0.02,-0.04
2024-12-25 18:44:45,823,775,789,766,763,-5.39,-7.76,-1.19,-0.02,0.01,0.00
2024-12-25 18:44:46,824,775,788,766,763,-5.39,-7.78,-1.11,-0.05,0.03,-0.01
2024-12-25 18:44:46,825,775,789,765,763,-5.27,-7.88,-1.16,-0.00,-0.14,0.10
2024-12-25 18:44:46,824,776,788,766,763,-5.61,-7.60,-0.79,-0.00,-0.02,-0.05
2024-12-25 18:44:46,824,774,788,766,763,-5.64,-7.81,-0.71,0.04,-0.03,0.00
2024-12-25 18:44:46,825,775,788,766,763,-5.76,-7.86,-0.57,-0.05,-0.09,0.05
2024-12-25 18:44:47,825,773,789,765,763,-5.74,-7.64,-0.51,-0.04,0.00,-0.01
2024-12-25 18:44:47,825,775,788,766,763,-5.93,-7.77,-0.13,-0.10,-0.04,-0.16
2024-12-25 18:44:47,825,773,790,767,762,-5.50,-7.71,-0.50,-0.16,0.05,-0.02
2024-12-25 18:44:47,825,775,788,766,763,-5.76,-7.67,-0.59,-0.02,0.11,0.06
2024-12-25 18:44:47,824,773,790,767,763,-5.57,-7.49,-0.94,-0.05,0.02,-0.06
2024-12-25 18:44:47,827,774,788,768,763,-5.61,-8.06,-0.78,-0.17,-0.05,-0.18
2024-12-25 18:44:48,824,774,788,766,762,-5.35,-8.04,-0.70,0.00,0.04,0.05
2024-12-25 18:44:48,827,774,786,767,762,-5.40,-7.79,-0.73,-0.02,0.08,0.04
2024-12-25 18:44:48,823,773,785,767,762,-5.62,-7.78,-0.99,0.01,0.11,0.09
2024-12-25 18:44:48,823,774,784,766,763,-5.58,-7.33,-1.03,-0.11,0.05,0.05
2024-12-25 18:44:48,826,774,786,766,762,-5.91,-7.67,-1.02,-0.03,0.07,-0.08
2024-12-25 18:44:49,825,774,787,765,762,-5.85,-7.70,-1.13,-0.26,-0.51,0.01
2024-12-25 18:44:49,825,775,788,769,763,-5.76,-7.47,-1.14,-0.05,0.23,-0.01
2024-12-25 18:44:49,822,774,786,766,762,-5.62,-7.52,-1.19,-0.09,-0.10,0.00
2024-12-25 18:44:49,827,774,787,768,763,-5.76,-7.46,-1.26,-0.02,0.05,-0.04
2024-12-25 18:44:49,825,772,783,766,763,-5.58,-7.61,-1.03,-0.02,-0.15,-0.04
2024-12-25 18:44:50,826,774,787,766,762,-5.63,-7.81,-0.86,0.02,0.09,-0.03
2024-12-25 18:44:50,826,772,785,765,764,-5.66,-7.76,-0.95,0.01,0.11,0.02
2024-12-25 18:44:50,825,773,785,765,762,-5.66,-7.59,-0.97,0.01,0.07,0.00
2024-12-25 18:44:50,826,773,786,768,763,-5.75,-7.61,-1.01,-0.02,0.04,-0.01
2024-12-25 18:44:50,829,773,785,764,764,-5.71,-7.66,-0.91,-0.03,0.03,-0.03
2024-12-25 18:44:51,824,775,786,766,762,-5.71,-7.58,-0.91,-0.02,0.04,0.03
2024-12-25 18:44:51,826,772,788,765,764,-5.64,-7.52,-0.92,-0.01,0.03,-0.03
2024-12-25 18:44:51,827,775,790,767,763,-5.32,-7.44,-0.72,0.13,0.15,0.02
2024-12-25 18:44:51,825,773,790,765,764,-5.53,-7.76,-1.02,0.46,0.19,0.12
2024-12-25 18:44:51,827,773,790,767,763,-5.93,-7.76,-0.31,0.08,0.06,-0.03
2024-12-25 18:44:51,824,776,792,766,762,-6.19,-7.65,0.28,0.19,0.22,0.03
2024-12-25 18:44:52,824,775,789,766,762,-5.62,-7.59,-0.67,0.08,0.11,-0.01
2024-12-25 18:44:52,825,775,791,766,763,-5.70,-7.77,-0.29,-0.16,-0.10,-0.06
2024-12-25 18:44:52,825,775,791,765,763,-5.73,-7.56,-0.26,-0.17,-0.10,-0.08
2024-12-25 18:44:52,824,775,792,766,762,-5.69,-7.52,-0.20,-0.03,-0.04,0.00
2024-12-25 18:44:52,823,775,791,767,763,-5.86,-7.73,-0.12,0.06,-0.05,0.00
2024-12-25 18:44:53,822,775,793,766,763,-5.82,-7.80,-0.11,-0.09,0.08,-0.02
2024-12-25 18:44:53,822,777,789,766,763,-5.66,-7.70,-0.20,-0.05,-0.01,-0.03
2024-12-25 18:44:53,823,774,792,768,764,-5.75,-7.75,0.09,0.09,0.07,0.04
2024-12-25 18:44:53,823,774,791,767,763,-5.79,-7.60,-0.25,-0.08,0.03,-0.05
2024-12-25 18:44:53,823,774,790,767,763,-5.81,-7.75,-0.06,-0.06,0.07,-0.00
2024-12-25 18:44:54,824,774,787,765,763,-5.68,-7.63,-0.05,0.02,0.04,0.02
2024-12-25 18:44:54,821,773,788,765,764,-5.81,-7.67,-0.17,0.06,0.06,0.01
2024-12-25 18:44:54,824,775,790,767,764,-5.82,-7.59,-0.07,-0.10,-0.02,0.01
2024-12-25 18:44:54,822,776,789,765,761,-5.82,-7.52,-0.10,-0.05,0.04,-0.02
2024-12-25 18:44:54,824,775,788,767,763,-5.97,-7.52,-0.17,-0.05,0.07,0.04
2024-12-25 18:44:54,823,773,788,765,762,-5.91,-7.45,-0.33,-0.08,0.07,-0.02
2024-12-25 18:44:55,824,774,789,766,764,-5.89,-7.50,-0.30,-0.06,0.03,-0.05
2024-12-25 18:44:55,821,773,787,763,762,-5.82,-7.68,-0.49,-0.09,0.08,-0.02
2024-12-25 18:44:55,824,775,790,767,764,-5.86,-7.60,-0.84,-0.16,0.02,-0.01
2024-12-25 18:44:55,826,774,791,767,763,-5.88,-7.69,-0.84,-0.17,0.01,-0.07
2024-12-25 18:44:55,824,775,790,769,763,-5.78,-7.67,-0.82,-0.14,-0.09,-0.02
2024-12-25 18:44:56,824,774,789,766,762,-5.80,-7.68,-0.67,-0.20,-0.04,-0.09
2024-12-25 18:44:56,825,776,789,767,764,-5.76,-7.50,-0.71,0.03,-0.08,0.06
2024-12-25 18:44:56,822,776,791,766,763,-6.01,-7.52,-0.50,0.02,-0.07,-0.04
2024-12-25 18:44:56,826,777,792,768,764,-5.92,-7.59,-0.46,0.05,0.13,0.02
2024-12-25 18:44:56,822,774,788,767,762,-5.88,-7.73,-0.46,-0.03,0.05,-0.03
2024-12-25 18:44:57,824,776,793,766,764,-5.60,-7.55,-0.61,-0.01,0.07,0.02
2024-12-25 18:44:57,824,775,789,766,763,-5.92,-7.61,-0.49,-0.02,0.04,-0.02
2024-12-25 18:44:57,823,777,790,767,763,-5.77,-7.64,-0.52,-0.06,0.02,-0.03
2024-12-25 18:44:57,823,775,790,766,763,-5.78,-7.60,-0.48,-0.01,0.09,-0.01
2024-12-25 18:44:57,823,776,793,767,763,-5.80,-7.62,-0.67,-0.02,0.09,0.04
2024-12-25 18:44:57,825,775,791,765,763,-5.98,-7.51,-0.68,-0.11,0.04,-0.02
2024-12-25 18:44:58,825,777,793,767,763,-5.73,-7.52,-0.93,-0.04,0.04,0.01
2024-12-25 18:44:58,823,774,792,767,763,-5.75,-7.47,-0.75,-0.06,0.11,-0.03
2024-12-25 18:44:58,824,776,793,768,763,-5.67,-7.42,-1.26,0.09,0.10,0.08
2024-12-25 18:44:58,824,776,793,769,765,-5.70,-7.54,-1.09,-0.28,0.18,-0.14
2024-12-25 18:44:58,823,776,793,767,764,-5.58,-7.58,-1.46,-0.02,0.01,-0.04
2024-12-25 18:44:59,825,777,792,767,761,-5.32,-7.27,-1.25,0.29,0.14,0.17
2024-12-25 18:44:59,823,777,792,766,764,-5.64,-7.72,-1.36,-0.14,-0.07,-0.17
2024-12-25 18:44:59,824,777,793,767,764,-5.56,-7.68,-1.25,-0.15,-0.05,-0.09
2024-12-25 18:44:59,823,777,793,766,763,-5.44,-7.71,-1.20,-0.01,-0.18,-0.07
2024-12-25 18:44:59,825,777,794,766,765,-5.47,-7.98,-0.82,-0.01,0.02,0.00
2024-12-25 18:45:00,826,776,792,766,764,-5.32,-7.98,-0.99,-0.06,-0.23,-0.05
2024-12-25 18:45:00,827,778,793,766,762,-5.62,-7.80,-0.69,-0.08,0.04,0.01
2024-12-25 18:45:00,827,777,792,766,763,-5.32,-7.66,-0.62,-0.17,-0.03,-0.06
2024-12-25 18:45:00,827,776,792,766,762,-5.66,-7.34,-1.36,-0.10,-0.03,-0.06
2024-12-25 18:45:00,825,776,792,767,763,-5.41,-8.16,-0.69,-0.02,0.06,-0.09
2024-12-25 18:45:01,823,777,791,765,763,-5.49,-8.31,-0.65,0.00,0.31,0.20
2024-12-25 18:45:01,826,776,786,767,763,-5.36,-7.40,-1.39,0.15,0.38,0.43
2024-12-25 18:45:01,824,777,789,764,764,-5.83,-7.45,-1.06,-0.00,-0.04,-0.08
2024-12-25 18:45:01,823,774,784,764,763,-6.17,-7.54,-0.91,0.06,0.12,-0.01
2024-12-25 18:45:01,820,775,786,767,763,-5.89,-7.25,-0.96,0.20,0.23,0.18
2024-12-25 18:45:01,821,773,783,763,762,-5.93,-7.51,-0.86,-0.02,0.12,-0.03
2024-12-25 18:45:02,821,774,783,762,764,-5.99,-7.27,-1.22,-0.09,0.07,0.07
2024-12-25 18:45:02,819,774,786,764,762,-6.12,-7.42,-1.23,-0.17,-0.02,-0.10
2024-12-25 18:45:02,821,774,783,765,762,-5.73,-6.88,-1.36,-0.06,-0.25,-0.06
2024-12-25 18:45:02,822,772,781,764,762,-6.05,-7.62,-0.59,0.07,0.10,-0.23
2024-12-25 18:45:02,823,774,783,764,762,-5.68,-7.35,-0.95,-0.13,0.03,-0.02
2024-12-25 18:45:03,822,774,786,765,763,-5.94,-7.91,-0.87,-0.00,-0.09,-0.04
2024-12-25 18:45:03,823,773,786,766,763,-5.65,-7.60,-0.69,0.05,-0.01,0.03
2024-12-25 18:45:03,822,772,782,764,763,-5.63,-7.69,-0.65,-0.08,0.06,-0.05
2024-12-25 18:45:03,821,770,784,764,763,-5.81,-7.62,-0.57,0.03,0.05,0.10
2024-12-25 18:45:03,821,774,786,765,764,-5.87,-7.52,-0.92,-0.04,0.15,0.14
2024-12-25 18:45:04,823,773,782,763,762,-6.07,-7.34,-0.87,-0.09,-0.04,0.01
2024-12-25 18:45:04,823,775,788,765,762,-6.25,-7.30,-0.87,-0.05,0.09,-0.02
2024-12-25 18:45:04,821,773,785,763,763,-6.14,-7.30,-0.96,-0.06,0.03,0.06
2024-12-25 18:45:04,823,775,787,766,763,-6.17,-7.31,-1.03,-0.09,0.05,0.04
2024-12-25 18:45:04,823,773,786,762,762,-6.11,-7.16,-1.12,-0.09,0.02,-0.01
2024-12-25 18:45:04,822,773,785,766,764,-6.26,-7.09,-1.20,-0.08,-0.00,-0.01
2024-12-25 18:45:05,821,774,784,764,761,-6.37,-7.14,-1.27,-0.07,0.01,-0.00
2024-12-25 18:45:05,824,775,787,765,764,-6.10,-7.09,-1.16,0.04,0.02,0.03
2024-12-25 18:45:05,822,773,785,765,761,-6.28,-7.18,-1.13,-0.03,-0.03,-0.01
2024-12-25 18:45:05,820,774,782,763,762,-6.14,-6.89,-1.12,-0.10,-0.00,-0.02
2024-12-25 18:45:05,821,773,778,764,763,-6.25,-7.04,-1.00,-0.05,-0.02,-0.01
2024-12-25 18:45:06,821,773,782,763,762,-6.38,-7.05,-0.93,-0.04,0.13,0.03
2024-12-25 18:45:06,820,771,777,762,761,-6.39,-6.84,-1.16,-0.01,0.10,0.03
2024-12-25 18:45:06,822,773,781,764,762,-6.35,-6.88,-1.19,0.10,0.14,-0.00
2024-12-25 18:45:06,818,771,782,765,761,-6.45,-7.00,-1.08,0.08,0.05,-0.00
2024-12-25 18:45:06,819,775,778,766,763,-6.53,-6.87,-1.19,-0.07,0.07,-0.06
2024-12-25 18:45:07,821,774,784,765,763,-6.31,-6.90,-0.97,-0.06,0.05,-0.04
2024-12-25 18:45:07,822,772,783,765,764,-6.53,-7.09,-1.46,0.16,0.06,0.06
2024-12-25 18:45:07,823,773,786,767,763,-6.25,-6.84,-0.88,-0.04,0.07,-0.03
2024-12-25 18:45:07,819,774,783,765,762,-6.27,-7.26,-1.09,-0.27,-0.14,-0.17
2024-12-25 18:45:07,820,773,789,765,764,-5.99,-7.19,-0.89,-0.14,-0.09,-0.02
2024-12-25 18:45:08,821,774,783,764,763,-6.29,-6.95,-1.28,-0.07,-0.04,-0.05
2024-12-25 18:45:08,820,773,788,767,764,-6.20,-7.10,-1.33,-0.03,-0.06,-0.08
2024-12-25 18:45:08,820,773,787,767,764,-6.28,-7.21,-0.97,-0.05,0.02,-0.05
2024-12-25 18:45:08,819,772,785,764,764,-5.83,-7.07,-1.25,-0.13,-0.17,-0.06
2024-12-25 18:45:08,820,773,786,765,763,-6.25,-7.23,-0.85,-0.08,-0.09,-0.10
2024-12-25 18:45:08,820,773,782,767,762,-5.84,-7.57,-1.18,0.03,-0.02,-0.06
2024-12-25 18:45:09,822,773,787,766,764,-5.64,-7.41,-0.80,-0.02,-0.04,-0.07
2024-12-25 18:45:09,821,774,783,766,763,-5.94,-7.64,-0.60,-0.08,0.05,-0.02
2024-12-25 18:45:09,822,774,788,764,763,-5.76,-7.50,-1.09,-0.08,0.14,0.04
2024-12-25 18:45:09,821,774,783,765,764,-5.98,-7.64,-1.29,0.09,0.08,0.07
2024-12-25 18:45:09,823,773,784,766,764,-6.11,-7.21,-0.98,-0.01,0.14,0.01
2024-12-25 18:45:10,822,773,787,765,762,-5.99,-7.34,-1.00,0.07,0.09,0.05
2024-12-25 18:45:10,819,774,782,764,763,-6.05,-7.20,-1.24,0.08,0.17,0.14
2024-12-25 18:45:10,821,773,784,765,762,-6.35,-7.18,-0.63,-0.14,0.02,-0.03
2024-12-25 18:45:10,822,772,784,766,762,-5.93,-7.05,-1.31,0.07,0.13,0.13
2024-12-25 18:45:10,822,772,781,765,763,-6.44,-7.02,-1.10,-0.11,-0.08,-0.08
2024-12-25 18:45:11,823,772,785,764,761,-6.26,-7.31,-1.03,-0.26,-0.08,-0.10
2024-12-25 18:45:11,821,774,783,766,764,-6.18,-6.98,-0.65,0.05,-0.04,0.05
2024-12-25 18:45:11,821,771,785,765,762,-6.03,-7.30,-1.15,-0.18,0.02,-0.11
2024-12-25 18:45:11,821,774,781,765,764,-6.50,-7.29,-0.72,-0.06,-0.01,0.02
2024-12-25 18:45:11,820,773,785,766,764,-6.05,-7.03,-1.37,-0.02,0.06,0.05
2024-12-25 18:45:12,822,773,783,767,762,-6.12,-7.12,-1.29,-0.10,-0.01,0.03
2024-12-25 18:45:12,822,773,788,765,763,-6.24,-6.95,-1.14,-0.05,-0.03,-0.03
2024-12-25 18:45:12,822,772,784,764,763,-6.05,-7.07,-0.80,-0.11,-0.11,-0.12
2024-12-25 18:45:12,820,774,783,764,763,-6.31,-7.10,-0.89,-0.12,0.05,-0.01
2024-12-25 18:45:12,823,774,783,766,763,-6.28,-6.92,-1.02,0.01,0.05,0.05
2024-12-25 18:45:12,822,774,789,765,763,-6.26,-7.04,-1.40,0.02,0.01,-0.05
2024-12-25 18:45:13,822,775,782,765,764,-6.13,-7.29,-0.59,-0.14,0.04,-0.08
2024-12-25 18:45:13,821,773,786,767,764,-5.82,-7.36,-1.35,0.12,-0.02,-0.01
2024-12-25 18:45:13,820,773,780,764,764,-6.53,-7.18,-0.50,-0.11,0.04,-0.03
2024-12-25 18:45:13,822,775,787,766,764,-6.17,-7.11,-0.74,-0.08,0.01,-0.04
2024-12-25 18:45:13,819,772,782,766,762,-6.26,-7.25,-0.67,-0.11,-0.01,-0.04
2024-12-25 18:45:14,820,775,791,768,764,-6.04,-7.03,-1.02,-0.05,0.02,0.00
2024-12-25 18:45:14,819,773,784,763,763,-6.40,-7.11,-1.01,-0.03,0.04,0.01
2024-12-25 18:45:14,820,775,787,766,763,-6.22,-7.02,-1.13,-0.03,0.01,-0.02
2024-12-25 18:45:14,820,773,787,767,763,-6.34,-7.10,-1.01,-0.05,0.06,-0.03
2024-12-25 18:45:14,822,774,787,765,763,-6.00,-7.13,-1.19,-0.04,-0.01,-0.03
2024-12-25 18:45:15,819,774,788,763,762,-6.38,-7.24,-0.82,0.03,-0.01,0.04
2024-12-25 18:45:15,822,775,788,766,762,-6.32,-7.00,-0.82,-0.01,0.01,-0.02
2024-12-25 18:45:15,821,774,789,766,763,-6.27,-7.21,-0.86,-0.05,-0.00,-0.01
2024-12-25 18:45:15,819,775,789,765,764,-6.30,-7.12,-0.82,-0.05,0.00,-0.00
2024-12-25 18:45:15,822,773,789,766,764,-6.24,-7.07,-0.83,-0.05,-0.01,-0.03
2024-12-25 18:45:15,820,774,790,767,763,-6.34,-7.18,-0.67,-0.06,0.07,-0.11
2024-12-25 18:45:16,821,774,787,766,764,-6.18,-7.46,-0.77,-0.06,0.10,-0.03
2024-12-25 18:45:16,823,774,787,766,764,-5.81,-7.26,-1.21,0.00,0.09,0.07
2024-12-25 18:45:16,819,774,786,766,763,-6.19,-7.11,-0.95,-0.04,-0.05,0.03
2024-12-25 18:45:16,820,775,785,768,763,-6.32,-7.07,-0.90,-0.01,0.02,-0.00
2024-12-25 18:45:16,819,774,786,767,763,-6.17,-7.16,-0.83,-0.02,0.02,0.04
2024-12-25 18:45:17,822,776,786,766,762,-6.21,-7.05,-0.86,-0.04,0.05,0.01
2024-12-25 18:45:17,820,775,788,766,763,-6.36,-7.18,-0.77,-0.06,0.01,0.03
2024-12-25 18:45:17,820,773,787,767,764,-6.27,-7.14,-1.11,-0.06,-0.04,-0.07
2024-12-25 18:45:17,820,776,789,767,764,-6.43,-7.26,-0.83,-0.11,0.06,-0.03
2024-12-25 18:45:17,820,775,782,766,762,-6.83,-6.98,-1.13,0.46,0.36,0.14
2024-12-25 18:45:18,817,772,780,765,764,-6.38,-7.00,-0.56,0.06,-0.01,0.06
2024-12-25 18:45:18,814,773,784,764,762,-6.55,-6.86,-0.50,0.09,0.06,0.03
2024-12-25 18:45:18,816,772,776,765,761,-6.55,-6.90,-0.33,-0.04,0.02,0.00
2024-12-25 18:45:18,816,772,780,764,762,-6.57,-6.94,-0.28,-0.02,-0.00,-0.03
2024-12-25 18:45:18,816,772,777,763,762,-6.52,-6.95,-0.22,-0.10,0.00,-0.03
2024-12-25 18:45:19,817,772,782,764,762,-6.53,-7.01,-0.33,-0.08,0.02,-0.02
2024-12-25 18:45:19,816,771,776,763,762,-6.53,-6.90,-0.40,-0.06,0.03,-0.02
2024-12-25 18:45:19,819,773,783,765,762,-6.56,-6.95,-0.49,-0.06,0.02,-0.02
2024-12-25 18:45:19,817,772,779,763,763,-6.49,-6.98,-0.45,-0.05,0.02,-0.01
2024-12-25 18:45:19,818,772,782,766,762,-6.53,-6.96,-0.47,-0.07,0.01,-0.02
2024-12-25 18:45:19,819,773,779,764,762,-6.53,-6.96,-0.47,-0.06,0.01,-0.02
2024-12-25 18:45:20,818,773,783,765,762,-6.51,-6.97,-0.43,-0.04,0.03,-0.02
2024-12-25 18:45:20,815,772,781,765,762,-6.48,-6.92,-0.51,-0.04,0.01,-0.01
2024-12-25 18:45:20,817,774,782,767,762,-6.51,-6.91,-0.50,-0.07,0.01,-0.03
2024-12-25 18:45:20,817,773,781,764,763,-6.53,-7.01,-0.51,-0.04,0.03,-0.01
2024-12-25 18:45:20,819,774,782,765,763,-6.45,-6.99,-0.55,-0.03,0.03,-0.03
2024-12-25 18:45:21,817,772,781,767,762,-6.38,-7.01,-0.35,-0.08,0.04,-0.08
2024-12-25 18:45:21,818,773,782,764,762,-6.46,-7.14,-0.45,-0.05,0.04,-0.02
2024-12-25 18:45:21,817,771,781,765,761,-6.27,-7.07,-0.57,-0.05,0.02,-0.03
2024-12-25 18:45:21,820,774,783,766,762,-6.41,-7.17,-0.56,-0.05,0.03,-0.02
2024-12-25 18:45:21,817,772,783,765,763,-6.34,-7.12,-0.59,-0.04,0.03,-0.01
2024-12-25 18:45:22,819,774,782,766,764,-6.27,-7.12,-0.59,-0.03,0.02,-0.02
2024-12-25 18:45:22,816,773,784,766,763,-6.32,-7.09,-0.58,-0.03,0.02,-0.01
2024-12-25 18:45:22,819,772,781,767,763,-6.32,-7.11,-0.45,0.07,0.05,0.01
2024-12-25 18:45:22,816,773,787,765,763,-6.43,-7.13,-0.49,-0.04,-0.00,-0.03
2024-12-25 18:45:22,817,773,780,766,763,-6.22,-7.12,-0.44,-0.04,0.03,-0.02
2024-12-25 18:45:22,818,773,788,766,764,-6.47,-7.16,-0.34,-0.09,0.09,-0.06
2024-12-25 18:45:23,817,774,781,765,764,-6.27,-7.16,-0.60,0.08,0.03,0.05
2024-12-25 18:45:23,817,774,785,766,763,-6.16,-7.23,-0.58,-0.09,0.04,-0.06
2024-12-25 18:45:23,816,772,778,764,764,-6.33,-7.12,-0.48,-0.02,0.01,-0.01
2024-12-25 18:45:23,819,775,784,766,764,-6.43,-7.30,-0.36,-0.02,0.15,-0.00
2024-12-25 18:45:23,817,772,784,764,762,-6.23,-7.28,-0.72,0.03,0.13,-0.02
2024-12-25 18:45:24,817,772,782,766,762,-5.83,-7.05,-0.67,-0.01,0.14,-0.06
2024-12-25 18:45:24,817,773,786,765,762,-6.00,-7.50,-1.11,-0.06,0.01,-0.03
2024-12-25 18:45:24,818,773,782,765,763,-5.99,-7.22,-0.80,-0.10,-0.14,-0.02
2024-12-25 18:45:24,816,772,783,765,762,-6.07,-7.19,-0.41,-0.02,-0.05,-0.03
2024-12-25 18:45:24,817,773,785,766,763,-6.34,-7.29,-0.60,-0.06,0.04,0.02
2024-12-25 18:45:25,817,771,782,765,763,-6.32,-7.15,-0.57,-0.06,0.01,0.00
2024-12-25 18:45:25,817,772,782,765,763,-6.26,-7.19,-0.61,-0.06,0.04,0.03
2024-12-25 18:45:25,818,773,786,765,761,-6.37,-7.19,-0.73,-0.01,0.06,0.04
2024-12-25 18:45:25,816,773,781,764,764,-6.33,-7.08,-0.70,-0.04,-0.01,-0.02
2024-12-25 18:45:25,819,773,788,766,762,-6.37,-7.13,-0.74,-0.04,0.04,-0.03
2024-12-25 18:45:26,819,773,780,766,763,-6.05,-6.83,-0.96,-0.04,0.01,0.01
2024-12-25 18:45:26,818,773,785,766,763,-6.39,-7.23,-0.97,-0.15,-0.03,-0.07
2024-12-25 18:45:26,816,772,782,766,765,-6.20,-7.16,-0.92,-0.08,0.00,0.01
2024-12-25 18:45:26,818,774,784,766,762,-6.29,-7.02,-0.82,-0.05,0.01,0.01
2024-12-25 18:45:26,818,773,784,766,762,-6.13,-7.19,-0.88,-0.06,-0.03,-0.08
2024-12-25 18:45:26,816,774,783,765,761,-6.30,-7.38,-0.50,-0.06,-0.01,0.02
2024-12-25 18:45:27,816,773,780,763,764,-6.04,-7.18,-0.84,-0.09,-0.06,-0.03
2024-12-25 18:45:27,818,773,787,769,763,-6.41,-7.18,-0.51,-0.10,-0.05,-0.03
2024-12-25 18:45:27,817,774,781,765,763,-6.18,-7.25,-0.50,-0.06,0.03,0.02
2024-12-25 18:45:27,817,773,786,768,762,-6.33,-7.05,-0.51,-0.03,0.00,-0.01
2024-12-25 18:45:27,818,773,780,768,763,-6.32,-7.05,-0.54,-0.04,0.06,-0.01
2024-12-25 18:45:28,819,773,786,765,763,-6.26,-7.18,-0.64,-0.04,0.06,-0.01
2024-12-25 18:45:28,818,774,781,768,762,-6.33,-7.16,-0.56,0.00,0.04,-0.02
2024-12-25 18:45:28,820,774,784,766,764,-6.22,-7.14,-0.70,-0.05,0.04,-0.02
2024-12-25 18:45:28,818,774,782,766,763,-6.27,-7.21,-0.76,-0.02,0.04,0.01
2024-12-25 18:45:28,818,772,782,766,763,-6.29,-7.15,-0.67,-0.16,0.02,0.00
2024-12-25 18:45:29,818,774,788,766,763,-6.32,-7.14,-0.74,-0.11,0.04,-0.00
2024-12-25 18:45:29,817,772,780,767,762,-6.14,-7.05,-1.08,0.00,0.05,0.03
2024-12-25 18:45:29,820,773,783,766,763,-6.32,-6.99,-1.02,-0.00,0.06,0.02
2024-12-25 18:45:29,817,772,782,766,764,-6.43,-6.85,-1.01,-0.03,-0.04,0.04
2024-12-25 18:45:29,817,773,782,765,762,-6.49,-6.87,-0.87,-0.09,-0.02,-0.08
2024-12-25 18:45:29,818,773,781,766,762,-6.44,-7.13,-0.86,-0.08,0.04,-0.05
2024-12-25 18:45:30,820,774,783,768,763,-6.22,-7.06,-0.91,0.03,0.04,0.03
2024-12-25 18:45:30,819,774,787,766,764,-6.38,-7.06,-0.86,-0.04,0.02,-0.02
2024-12-25 18:45:30,818,774,781,766,764,-6.34,-7.11,-0.84,-0.04,0.01,-0.03
2024-12-25 18:45:30,817,774,787,768,763,-6.34,-7.12,-0.93,-0.02,0.02,-0.00
2024-12-25 18:45:30,816,773,781,767,762,-6.18,-7.03,-0.98,-0.09,-0.00,-0.03
2024-12-25 18:45:31,818,773,783,765,762,-6.35,-7.03,-0.82,0.02,0.09,0.02
2024-12-25 18:45:31,815,773,778,767,763,-6.16,-7.06,-1.09,-0.01,0.06,-0.01
2024-12-25 18:45:31,819,773,787,768,764,-6.29,-7.16,-0.74,-0.09,0.03,-0.05
2024-12-25 18:45:31,818,773,778,767,763,-6.43,-7.11,-0.58,-0.06,0.01,-0.05
2024-12-25 18:45:31,819,773,785,767,762,-6.22,-7.13,-0.59,-0.10,-0.04,-0.05
2024-12-25 18:45:32,817,772,779,765,763,-6.06,-7.11,-0.97,-0.09,-0.16,-0.08
2024-12-25 18:45:32,817,773,787,767,763,-6.60,-7.05,-0.53,-0.04,-0.11,0.08
2024-12-25 18:45:32,817,775,782,766,763,-6.26,-7.18,-0.59,0.08,0.07,0.01
2024-12-25 18:45:32,818,774,784,767,763,-6.34,-7.18,-0.52,-0.06,0.03,-0.03
2024-12-25 18:45:32,817,772,780,764,763,-6.34,-7.19,-0.60,-0.02,-0.04,-0.08
2024-12-25 18:45:33,819,773,787,767,762,-6.15,-7.21,-0.37,-0.09,0.00,-0.11
2024-12-25 18:45:33,818,775,781,766,763,-6.16,-7.35,-0.42,-0.01,0.08,-0.02
2024-12-25 18:45:33,820,775,787,769,763,-5.97,-7.41,-0.55,0.00,-0.03,0.06
2024-12-25 18:45:33,816,773,782,764,763,-6.50,-7.20,-0.38,-0.11,0.01,-0.05
2024-12-25 18:45:33,818,774,784,767,761,-6.12,-7.18,-0.60,-0.05,0.00,0.01
2024-12-25 18:45:33,817,773,783,766,763,-6.39,-7.38,-0.26,-0.11,-0.03,-0.05
2024-12-25 18:45:34,820,775,785,766,763,-6.06,-7.35,-0.45,0.04,-0.05,-0.00
2024-12-25 18:45:34,816,773,781,765,762,-6.36,-7.26,0.03,-0.02,-0.15,0.02
2024-12-25 18:45:34,818,774,782,766,762,-6.45,-7.07,0.02,-0.07,0.05,-0.04
2024-12-25 18:45:34,816,773,786,767,762,-6.39,-7.30,0.10,-0.01,0.04,0.01
2024-12-25 18:45:34,817,774,781,765,763,-6.18,-7.25,-0.12,-0.07,0.06,-0.00
2024-12-25 18:45:35,817,773,782,767,765,-6.31,-7.22,-0.17,-0.08,0.05,-0.03
2024-12-25 18:45:35,816,772,780,764,762,-6.28,-7.25,-0.58,-0.07,0.17,0.00
2024-12-25 18:45:35,818,773,782,766,763,-6.06,-7.19,-0.83,-0.08,0.13,0.00
2024-12-25 18:45:35,817,774,787,765,763,-6.11,-7.03,-0.60,-0.04,0.05,-0.01
2024-12-25 18:45:35,819,774,780,766,764,-6.18,-7.42,-0.97,-0.10,-0.09,0.00
2024-12-25 18:45:36,817,772,785,765,763,-6.30,-6.97,-0.74,-0.09,0.06,0.02
2024-12-25 18:45:36,817,773,780,766,764,-6.27,-7.08,-0.89,0.07,0.05,-0.01
2024-12-25 18:45:36,820,775,786,768,762,-6.50,-7.16,-0.61,-0.01,0.03,-0.02
2024-12-25 18:45:36,814,772,779,765,763,-6.21,-7.15,-0.59,0.10,0.13,0.10
2024-12-25 18:45:36,816,773,782,765,762,-6.35,-6.92,-0.40,0.24,0.09,0.10
2024-12-25 18:45:36,816,773,787,767,763,-6.58,-7.04,-0.56,0.02,0.04,-0.03
2024-12-25 18:45:37,813,771,778,765,761,-6.42,-6.98,-0.32,0.18,0.14,0.08
2024-12-25 18:45:37,816,772,778,763,762,-6.56,-6.78,-0.18,-0.05,0.00,-0.04
2024-12-25 18:45:37,814,771,782,764,763,-6.71,-7.02,-0.23,-0.06,0.07,-0.04
2024-12-25 18:45:37,815,770,778,764,762,-6.56,-6.93,-0.38,-0.14,-0.01,0.01
2024-12-25 18:45:37,814,773,783,764,764,-6.56,-6.97,-0.26,-0.16,-0.07,-0.11
2024-12-25 18:45:38,816,772,780,765,763,-6.47,-6.97,-0.48,0.02,0.04,-0.02
2024-12-25 18:45:38,816,773,785,765,763,-6.47,-7.10,-0.26,-0.05,-0.03,-0.01
2024-12-25 18:45:38,816,773,780,764,763,-6.42,-7.02,-0.32,-0.04,0.02,-0.02
2024-12-25 18:45:38,817,772,782,766,763,-6.45,-6.97,-0.59,0.02,-0.01,0.05
2024-12-25 18:45:38,817,772,779,764,764,-6.78,-7.15,0.03,-0.18,-0.11,-0.11
2024-12-25 18:45:39,817,773,784,766,763,-6.33,-7.18,-0.56,0.06,0.03,0.09
2024-12-25 18:45:39,813,771,778,764,762,-6.65,-6.82,-0.14,-0.07,-0.06,-0.03
2024-12-25 18:45:39,817,774,785,765,763,-6.70,-6.97,0.07,-0.03,-0.01,-0.04
2024-12-25 18:45:39,816,776,780,766,764,-6.41,-7.03,0.12,-0.03,-0.01,0.01
2024-12-25 18:45:39,817,773,783,765,762,-6.52,-7.13,0.02,-0.07,0.02,0.01
2024-12-25 18:45:40,817,773,785,766,762,-6.50,-6.93,-0.06,-0.01,-0.01,0.02
2024-12-25 18:45:40,817,772,781,765,762,-6.65,-6.90,-0.13,-0.03,0.03,-0.00
2024-12-25 18:45:40,816,772,787,765,763,-6.60,-6.95,0.25,-0.08,0.02,-0.06
2024-12-25 18:45:40,813,772,780,765,763,-6.66,-6.95,0.12,-0.10,0.03,-0.02
2024-12-25 18:45:40,817,772,786,765,763,-6.52,-7.02,0.03,-0.06,0.03,-0.04
2024-12-25 18:45:40,814,772,781,764,761,-6.56,-7.06,0.07,-0.08,0.03,-0.02
2024-12-25 18:45:41,816,774,782,766,763,-6.50,-7.03,-0.18,0.03,0.05,0.02
2024-12-25 18:45:41,817,774,786,767,764,-6.32,-7.08,-0.11,-0.05,0.07,-0.02
2024-12-25 18:45:41,817,773,779,766,763,-6.37,-7.05,-0.19,-0.09,0.03,-0.03
2024-12-25 18:45:41,816,773,786,767,763,-6.46,-7.03,-0.14,-0.03,0.01,-0.01
2024-12-25 18:45:41,818,773,779,764,763,-6.50,-6.94,-0.06,-0.05,0.03,-0.02
2024-12-25 18:45:42,817,773,784,767,762,-6.68,-6.91,0.16,-0.02,0.03,-0.03
2024-12-25 18:45:42,815,773,781,764,762,-6.48,-7.00,0.10,-0.07,0.06,-0.07
2024-12-25 18:45:42,817,773,782,764,763,-6.49,-7.13,0.25,-0.07,0.00,-0.04
2024-12-25 18:45:42,813,773,785,765,762,-6.46,-7.15,0.21,-0.09,-0.01,-0.01
2024-12-25 18:45:42,815,773,780,766,763,-6.34,-7.02,-0.22,-0.06,0.04,-0.03
2024-12-25 18:45:43,815,775,786,766,763,-6.42,-7.14,-0.21,-0.04,0.08,-0.01
2024-12-25 18:45:43,816,774,780,766,762,-6.39,-7.10,-0.21,-0.06,0.00,-0.04
2024-12-25 18:45:43,817,772,784,766,762,-6.55,-7.14,-0.28,0.14,0.09,0.00
2024-12-25 18:45:43,814,772,780,764,763,-6.38,-7.25,-0.06,-0.11,-0.00,-0.04
2024-12-25 18:45:43,816,774,786,766,761,-6.38,-7.12,-0.14,-0.11,0.02,-0.01
2024-12-25 18:45:43,814,772,779,766,762,-6.37,-7.03,-0.25,-0.01,0.01,-0.01
2024-12-25 18:45:44,817,775,785,767,763,-6.54,-7.09,-0.50,0.04,0.06,0.03
2024-12-25 18:45:44,816,774,781,765,763,-6.55,-7.03,0.02,-0.04,0.03,-0.04
2024-12-25 18:45:44,817,775,780,766,763,-6.39,-7.05,-0.06,-0.11,-0.02,-0.02
2024-12-25 18:45:44,816,773,783,765,763,-6.46,-7.13,-0.12,-0.06,0.01,-0.04
2024-12-25 18:45:44,817,774,783,766,762,-6.42,-7.11,-0.22,-0.02,0.01,-0.01
2024-12-25 18:45:45,818,773,783,765,763,-6.36,-7.25,-0.14,-0.02,0.04,0.00
2024-12-25 18:45:45,817,774,782,765,763,-6.43,-7.13,-0.12,-0.04,0.01,0.01
2024-12-25 18:45:45,816,774,786,767,764,-6.46,-7.06,0.09,-0.12,-0.00,-0.03
2024-12-25 18:45:45,815,774,782,764,764,-6.46,-7.03,-0.00,-0.01,0.04,0.00
2024-12-25 18:45:45,817,776,785,767,763,-6.30,-7.17,-0.09,-0.01,0.04,0.02
2024-12-25 18:45:46,816,773,781,765,762,-6.29,-7.07,-0.35,-0.01,0.05,0.02
2024-12-25 18:45:46,817,774,782,766,763,-6.37,-7.12,-0.56,-0.05,0.06,-0.06
2024-12-25 18:45:46,816,773,785,764,764,-6.30,-7.29,-0.15,-0.15,-0.03,-0.13
2024-12-25 18:45:46,818,774,783,766,764,-6.13,-7.30,-0.28,-0.04,0.00,0.01
2024-12-25 18:45:46,816,774,784,764,761,-6.57,-7.23,0.03,-0.00,-0.00,0.01
2024-12-25 18:45:46,818,774,779,765,762,-6.30,-7.22,-0.01,-0.01,0.05,-0.01
2024-12-25 18:45:47,817,774,788,766,763,-6.26,-7.29,-0.10,0.01,0.02,0.03
2024-12-25 18:45:47,818,772,781,762,763,-6.15,-7.28,-0.18,0.01,0.03,-0.02
2024-12-25 18:45:47,820,773,781,765,763,-6.74,-7.05,0.26,0.11,0.07,0.05
2024-12-25 18:45:47,821,774,782,764,762,-6.43,-7.25,0.15,0.24,0.09,0.05
2024-12-25 18:45:47,818,770,781,764,761,-6.52,-7.14,0.18,-0.04,0.02,0.03
2024-12-25 18:45:48,817,772,772,762,762,-6.58,-7.11,0.46,0.01,0.02,0.04
2024-12-25 18:45:48,816,771,774,762,762,-6.35,-7.22,0.01,0.01,0.05,0.01
2024-12-25 18:45:48,819,772,776,764,762,-6.39,-7.00,0.27,-0.06,0.04,-0.03
2024-12-25 18:45:48,818,771,781,764,762,-6.52,-7.09,0.49,-0.05,0.01,-0.02
2024-12-25 18:45:48,818,772,775,762,762,-6.75,-6.88,0.72,-0.08,0.04,-0.06
2024-12-25 18:45:49,820,773,780,765,761,-6.54,-7.18,0.54,0.01,0.00,-0.00
2024-12-25 18:45:49,819,770,778,764,761,-6.60,-6.95,0.30,-0.08,0.02,-0.05
2024-12-25 18:45:49,819,771,777,763,762,-6.58,-7.08,0.44,-0.06,0.06,-0.02
2024-12-25 18:45:49,820,772,781,763,762,-6.36,-7.06,0.20,-0.03,-0.00,-0.02
2024-12-25 18:45:49,821,772,775,764,763,-6.72,-7.16,0.39,-0.06,0.02,-0.02
2024-12-25 18:45:49,820,772,780,763,762,-6.50,-7.20,0.06,-0.09,0.06,-0.03
2024-12-25 18:45:50,820,769,777,763,762,-6.36,-7.07,-0.03,-0.03,0.09,0.03
2024-12-25 18:45:50,820,772,778,763,762,-6.31,-6.98,-0.08,-0.06,0.09,0.04
2024-12-25 18:45:50,820,772,782,763,762,-6.54,-7.22,0.03,-0.04,-0.02,-0.04
2024-12-25 18:45:50,818,772,776,764,761,-6.64,-6.92,0.19,-0.06,-0.02,0.02
2024-12-25 18:45:50,820,772,783,765,763,-6.69,-6.80,0.21,-0.03,-0.01,-0.02
2024-12-25 18:45:51,819,771,774,762,762,-6.57,-7.20,0.16,-0.04,0.03,-0.04
2024-12-25 18:45:51,820,773,779,763,762,-6.56,-7.09,0.12,-0.08,0.04,-0.03
2024-12-25 18:45:51,816,772,780,763,762,-6.49,-7.07,0.03,-0.03,0.06,-0.01
2024-12-25 18:45:51,819,771,778,762,761,-6.43,-7.09,0.01,-0.05,0.04,0.01
2024-12-25 18:45:51,820,773,781,764,763,-6.49,-7.03,0.13,-0.05,0.03,-0.04
2024-12-25 18:45:52,819,772,779,762,763,-6.51,-7.14,0.10,-0.05,0.03,-0.01
2024-12-25 18:45:52,820,772,777,764,763,-6.43,-7.09,0.03,-0.03,0.00,-0.02
2024-12-25 18:45:52,819,770,782,764,764,-6.47,-7.08,0.08,-0.04,0.02,-0.01
2024-12-25 18:45:52,820,771,776,763,761,-6.57,-7.10,0.11,-0.04,0.03,-0.03
2024-12-25 18:45:52,818,772,780,764,762,-6.51,-7.05,0.16,-0.03,0.03,0.01
2024-12-25 18:45:52,819,772,783,763,761,-6.44,-7.05,0.17,0.01,0.03,0.00
2024-12-25 18:45:53,819,772,780,764,762,-6.41,-7.16,0.01,-0.03,-0.01,-0.01
2024-12-25 18:45:53,821,772,781,765,761,-6.31,-7.08,-0.07,0.01,0.01,-0.06
2024-12-25 18:45:53,818,773,782,764,763,-6.30,-7.32,0.12,-0.07,0.05,-0.05
2024-12-25 18:45:53,819,773,780,765,762,-6.47,-7.21,-0.01,-0.01,0.15,-0.02
2024-12-25 18:45:53,820,772,785,764,761,-6.39,-7.05,-0.18,-0.08,0.09,0.05
2024-12-25 18:45:54,817,772,779,765,763,-6.13,-7.27,-0.66,-0.05,0.11,-0.06
2024-12-25 18:45:54,820,773,784,767,763,-6.37,-7.36,-0.57,-0.07,0.04,0.04
2024-12-25 18:45:54,819,771,779,763,761,-6.45,-6.95,-0.62,-0.01,0.11,0.06
2024-12-25 18:45:54,820,773,782,764,762,-6.34,-6.96,-0.81,-0.02,0.02,0.01
2024-12-25 18:45:54,821,772,782,765,762,-6.41,-7.26,-0.54,-0.03,-0.12,-0.05
2024-12-25 18:45:55,819,772,782,764,763,-6.26,-7.09,-0.39,-0.03,-0.06,-0.03
2024-12-25 18:45:55,818,772,781,764,762,-6.61,-7.17,-0.27,-0.08,-0.02,-0.02
2024-12-25 18:45:55,819,772,785,766,763,-6.41,-7.26,-0.16,-0.04,-0.00,-0.04
2024-12-25 18:45:55,818,773,783,765,763,-6.24,-7.11,-0.30,0.04,0.09,0.03
2024-12-25 18:45:55,818,773,783,765,763,-6.45,-7.22,-0.23,-0.03,0.05,-0.02
2024-12-25 18:45:56,816,772,780,764,762,-6.38,-7.10,-0.14,-0.01,0.07,0.03
2024-12-25 18:45:56,816,772,778,765,762,-6.46,-7.04,-0.31,-0.03,0.06,0.01
2024-12-25 18:45:56,815,771,780,762,762,-6.42,-7.01,-0.32,-0.07,-0.01,-0.04
2024-12-25 18:45:56,816,773,777,764,763,-6.43,-7.16,-0.21,-0.06,0.01,-0.03
2024-12-25 18:45:56,817,771,780,763,762,-6.36,-7.19,-0.28,-0.08,-0.02,-0.02
2024-12-25 18:45:56,817,772,781,764,762,-6.42,-7.21,-0.19,-0.10,-0.01,-0.04
2024-12-25 18:45:57,816,771,777,765,763,-6.36,-7.17,-0.21,-0.05,0.01,-0.01
2024-12-25 18:45:57,817,773,784,765,763,-6.30,-7.17,-0.40,-0.06,0.04,-0.01
2024-12-25 18:45:57,818,772,776,763,763,-6.30,-7.08,-0.37,-0.05,0.02,-0.02
2024-12-25 18:45:57,818,773,783,765,762,-6.36,-7.41,-0.29,-0.13,-0.01,-0.12
2024-12-25 18:45:57,818,772,780,764,761,-6.18,-7.04,-0.16,0.08,-0.03,0.11
2024-12-25 18:45:58,818,773,784,765,763,-6.34,-7.34,-0.48,-0.15,0.03,-0.20
2024-12-25 18:45:58,817,771,779,767,763,-6.19,-7.44,-0.18,-0.02,0.06,0.00
2024-12-25 18:45:58,818,774,783,765,762,-6.16,-7.33,-0.29,-0.09,0.10,-0.03
2024-12-25 18:45:58,818,773,783,765,762,-5.91,-7.54,-0.56,-0.15,0.01,-0.02
2024-12-25 18:45:58,816,771,782,763,763,-6.34,-7.33,-0.56,-0.09,0.01,-0.10
2024-12-25 18:45:59,819,772,782,765,762,-6.01,-7.47,-0.58,-0.07,0.09,0.02
2024-12-25 18:45:59,820,773,782,766,762,-5.90,-7.26,-0.86,-0.06,0.09,-0.02
2024-12-25 18:45:59,820,773,784,764,763,-5.80,-7.43,-1.04,-0.13,0.06,-0.07
2024-12-25 18:45:59,819,773,779,764,761,-5.78,-7.40,-0.89,-0.03,0.02,-0.04
2024-12-25 18:45:59,818,772,783,767,763,-6.03,-7.41,-1.06,-0.04,0.07,-0.05
2024-12-25 18:45:59,820,771,779,765,762,-5.82,-7.46,-1.05,0.01,0.01,0.06
2024-12-25 18:46:00,820,772,783,765,762,-5.83,-7.48,-0.89,-0.09,0.03,-0.09
2024-12-25 18:46:00,818,773,778,765,764,-5.89,-7.55,-1.04,0.02,0.10,0.03
2024-12-25 18:46:00,818,772,781,764,763,-5.49,-7.57,-0.98,-0.12,0.11,-0.17
2024-12-25 18:46:00,818,772,782,764,764,-5.68,-7.67,-0.90,-0.16,-0.12,-0.14
2024-12-25 18:46:00,817,774,783,765,762,-5.20,-7.73,-1.30,-0.12,-0.02,-0.09
2024-12-25 18:46:01,817,773,782,764,763,-5.19,-8.15,-1.16,-0.14,-0.04,-0.13
2024-12-25 18:46:01,816,772,786,765,764,-5.65,-8.20,-0.38,-0.11,-0.10,0.02
2024-12-25 18:46:01,816,772,782,765,764,-5.49,-7.61,-0.91,0.06,0.01,0.10
2024-12-25 18:46:01,814,772,782,765,763,-5.46,-7.89,-1.03,-0.03,-0.08,-0.13
2024-12-25 18:46:01,814,772,778,764,764,-5.33,-7.78,-1.11,-0.07,0.07,-0.02
2024-12-25 18:46:02,817,774,783,764,764,-5.32,-7.99,-0.90,-0.05,0.03,0.02
2024-12-25 18:46:02,815,772,782,763,763,-5.54,-7.80,-0.94,-0.10,0.06,0.04
2024-12-25 18:46:02,817,773,783,763,765,-5.50,-7.70,-1.14,-0.07,0.11,0.04
2024-12-25 18:46:02,816,773,786,765,763,-5.66,-7.67,-1.13,-0.07,0.05,0.02
2024-12-25 18:46:02,817,772,783,763,763,-5.67,-7.57,-1.25,-0.07,0.14,0.04
2024-12-25 18:46:03,818,774,787,766,763,-5.82,-7.57,-1.02,-0.02,0.01,-0.03
2024-12-25 18:46:03,816,773,785,765,764,-5.63,-7.48,-1.26,-0.01,-0.01,-0.01
2024-12-25 18:46:03,814,775,785,765,763,-5.47,-7.58,-1.00,-0.06,-0.15,-0.04
2024-12-25 18:46:03,815,773,784,765,763,-5.79,-7.68,-1.07,0.01,0.01,-0.01
2024-12-25 18:46:03,819,776,786,765,765,-5.67,-7.64,-1.13,-0.06,0.02,-0.05
2024-12-25 18:46:03,818,773,785,764,763,-5.62,-7.54,-1.04,-0.06,0.01,-0.01
2024-12-25 18:46:04,816,774,784,764,763,-5.75,-7.62,-1.00,-0.04,0.05,-0.01
2024-12-25 18:46:04,815,773,785,765,765,-5.54,-7.59,-1.12,-0.04,0.05,0.00
2024-12-25 18:46:04,817,772,787,765,763,-5.78,-7.52,-1.20,-0.04,0.03,0.00
2024-12-25 18:46:04,815,775,785,765,764,-5.83,-7.54,-0.91,-0.06,0.07,-0.04
2024-12-25 18:46:04,815,773,786,765,763,-5.55,-7.68,-1.06,0.03,0.00,0.03
2024-12-25 18:46:05,819,775,786,765,765,-5.77,-7.41,-0.86,0.24,-0.30,0.19
2024-12-25 18:46:05,816,773,786,765,763,-6.10,-7.52,-0.46,-0.06,-0.06,0.05
2024-12-25 18:46:05,816,774,790,765,764,-6.05,-7.47,-0.60,-0.02,-0.01,-0.03
2024-12-25 18:46:05,813,775,789,765,762,-5.99,-7.53,-0.45,-0.00,-0.04,0.02
2024-12-25 18:46:05,818,775,791,767,765,-5.86,-7.35,-0.46,-0.07,-0.01,-0.02
2024-12-25 18:46:06,816,774,790,764,764,-6.07,-7.51,-0.45,-0.05,0.07,0.01
2024-12-25 18:46:06,818,776,792,765,765,-5.96,-7.49,-0.49,-0.04,0.01,-0.02
2024-12-25 18:46:06,816,776,789,765,765,-6.00,-7.45,-0.42,-0.05,-0.03,-0.03
2024-12-25 18:46:06,815,774,791,764,765,-6.26,-7.51,-0.43,-0.05,0.08,0.02
2024-12-25 18:46:06,817,775,790,766,763,-6.01,-7.32,-0.47,-0.02,0.01,0.01
2024-12-25 18:46:06,815,776,791,766,763,-6.22,-7.36,-0.31,-0.10,0.07,-0.05
2024-12-25 18:46:07,816,774,790,765,763,-5.84,-7.37,-0.57,-0.07,0.09,-0.06
2024-12-25 18:46:07,817,777,791,765,763,-5.88,-7.44,-0.68,-0.03,0.17,-0.02
2024-12-25 18:46:07,815,775,791,765,764,-5.77,-7.66,-0.86,-0.12,-0.08,-0.10
2024-12-25 18:46:07,817,775,790,767,763,-5.77,-7.51,-0.48,0.00,0.00,0.06
2024-12-25 18:46:07,817,775,788,766,764,-6.12,-7.42,-0.68,-0.04,0.06,0.03
2024-12-25 18:46:08,817,774,790,765,764,-6.16,-7.30,-0.72,-0.07,0.22,0.04
2024-12-25 18:46:08,817,775,790,764,763,-5.94,-7.31,-1.13,-0.02,-0.01,-0.04
2024-12-25 18:46:08,814,774,789,766,764,-5.90,-7.45,-0.98,-0.05,-0.05,-0.07
2024-12-25 18:46:08,817,773,789,765,763,-5.90,-7.58,-1.01,-0.10,0.07,-0.06
2024-12-25 18:46:08,816,775,788,766,765,-6.04,-7.54,-0.84,0.04,0.07,0.05
2024-12-25 18:46:09,817,772,790,766,764,-6.08,-7.23,-1.07,-0.03,-0.01,0.00
2024-12-25 18:46:09,816,774,785,764,762,-6.02,-7.47,-0.98,-0.06,0.02,0.06
2024-12-25 18:46:09,815,773,787,766,765,-5.87,-7.19,-1.04,-0.01,0.00,-0.02
2024-12-25 18:46:09,815,773,786,763,762,-6.04,-7.41,-1.04,-0.04,-0.00,-0.03
2024-12-25 18:46:09,815,774,789,764,767,-5.90,-7.27,-1.14,-0.06,-0.08,-0.06
2024-12-25 18:46:10,816,773,785,766,764,-5.95,-7.37,-0.92,-0.05,-0.01,-0.03
2024-12-25 18:46:10,814,774,787,765,763,-6.05,-7.35,-0.81,-0.02,0.03,-0.01
2024-12-25 18:46:10,815,775,787,765,764,-5.95,-7.42,-0.81,-0.03,0.02,-0.01
2024-12-25 18:46:10,816,774,787,764,764,-5.87,-7.33,-0.95,-0.04,-0.01,-0.03
2024-12-25 18:46:10,816,775,786,765,763,-6.00,-7.42,-0.94,-0.05,0.03,-0.02
