Timestamp,Flex1,Flex2,Flex3,Flex4,Flex5,AccelX,AccelY,AccelZ,GyroX,GyroY,GyroZ
2024-12-25 18:11:09,785,788,806,781,774,-0.92,1.35,10.47,-0.05,-0.01,-0.02
2024-12-25 18:11:09,787,788,804,782,774,-0.99,1.30,10.51,-0.05,0.03,0.01
2024-12-25 18:11:09,788,791,804,782,775,-1.10,1.28,10.48,-0.04,0.02,-0.01
2024-12-25 18:11:09,788,789,805,782,774,-0.99,1.31,10.47,-0.04,0.03,-0.01
2024-12-25 18:11:09,790,789,804,782,774,-1.14,1.34,10.50,-0.04,0.06,-0.01
2024-12-25 18:11:09,789,790,807,783,776,-1.05,1.37,10.40,-0.03,0.02,0.01
2024-12-25 18:11:09,788,789,804,782,774,-1.09,1.44,10.48,-0.05,-0.06,0.02
2024-12-25 18:11:09,788,790,806,782,774,-0.96,1.18,10.45,-0.05,-0.03,0.09
2024-12-25 18:11:09,789,788,807,779,773,-0.82,1.07,10.49,-0.05,-0.05,0.20
2024-12-25 18:11:09,788,788,805,783,773,-0.25,1.54,10.43,0.02,0.19,0.24
2024-12-25 18:11:09,789,788,805,782,775,-1.32,1.10,10.51,-0.13,0.12,0.25
2024-12-25 18:11:09,787,792,806,783,775,-1.09,1.50,10.62,-0.13,0.35,-0.12
2024-12-25 18:11:09,789,796,810,782,775,-1.14,1.16,10.36,-0.12,0.22,-0.18
2024-12-25 18:11:09,788,798,811,784,776,-1.66,1.08,10.25,-0.05,0.09,-0.05
2024-12-25 18:11:09,789,798,809,785,776,-1.79,0.93,10.44,-0.08,-0.02,-0.09
2024-12-25 18:11:09,789,797,809,785,776,-1.28,0.88,10.44,-0.05,-0.02,-0.02
2024-12-25 18:11:09,790,798,810,788,776,-1.67,0.91,10.35,-0.04,-0.02,-0.02
2024-12-25 18:11:09,789,797,810,786,776,-1.45,0.85,10.48,-0.04,0.03,-0.01
2024-12-25 18:11:09,788,799,810,786,776,-1.56,0.85,10.43,-0.01,0.00,0.02
2024-12-25 18:11:09,791,799,810,785,777,-1.32,1.16,10.35,0.01,-0.10,0.00
2024-12-25 18:11:09,790,796,807,784,773,-1.29,1.04,10.45,0.04,-0.06,-0.01
2024-12-25 18:11:09,789,795,809,785,774,-0.88,1.50,10.34,0.07,0.05,0.04
2024-12-25 18:11:09,787,793,804,779,774,-2.51,0.64,10.90,-0.20,0.06,0.44
2024-12-25 18:11:09,787,790,801,777,774,-1.29,1.33,12.05,-0.69,0.12,-0.35
2024-12-25 18:11:09,788,788,808,782,775,-0.77,-1.36,11.05,-0.74,-0.62,0.05
2024-12-25 18:11:09,787,783,810,785,773,0.39,-1.89,8.67,-0.61,0.43,-0.14
2024-12-25 18:11:09,787,785,814,790,776,-0.05,-1.87,6.46,-0.25,0.61,0.27
2024-12-25 18:11:09,786,790,816,788,777,-0.87,-2.46,8.88,1.60,-0.04,0.42
2024-12-25 18:11:09,788,790,808,782,775,-1.06,1.05,11.78,1.01,-0.15,-0.38
2024-12-25 18:11:09,788,790,797,777,775,0.23,1.49,11.71,0.07,0.14,-0.16
2024-12-25 18:11:09,788,788,797,775,774,-0.17,1.44,10.09,-0.19,0.29,0.10
2024-12-25 18:11:09,788,785,798,776,774,-0.81,1.25,11.14,-0.07,0.06,0.06
2024-12-25 18:11:09,788,789,799,776,775,-1.05,0.92,10.42,-0.15,0.06,0.11
2024-12-25 18:11:09,787,788,802,778,773,-1.00,1.79,10.06,0.26,0.14,0.02
2024-12-25 18:11:09,788,788,802,777,773,-0.57,1.32,8.60,0.11,0.12,-0.09
2024-12-25 18:11:09,786,789,800,774,774,-1.17,2.14,11.02,-0.35,0.25,-0.24
2024-12-25 18:11:09,780,787,797,773,774,-0.96,1.17,10.06,0.12,-0.16,0.07
2024-12-25 18:11:09,779,786,798,774,773,-1.02,1.83,10.12,0.04,0.54,-0.03
2024-12-25 18:11:09,785,787,802,775,775,-1.02,1.74,10.42,-0.02,-0.02,0.01
2024-12-25 18:11:09,787,787,801,776,774,-0.63,1.81,10.44,-0.07,-0.02,0.05
2024-12-25 18:11:09,787,787,804,776,775,-1.14,1.68,10.35,-0.08,-0.01,0.00
2024-12-25 18:11:09,787,787,804,778,774,-0.65,1.64,10.36,-0.05,0.02,-0.01
2024-12-25 18:11:09,789,788,805,777,774,-0.86,1.66,10.44,-0.04,0.05,-0.00
2024-12-25 18:11:09,787,790,806,777,775,-0.78,1.69,10.40,-0.04,-0.01,-0.02
2024-12-25 18:11:09,786,789,805,777,775,-0.85,1.71,10.43,-0.04,0.04,-0.01
2024-12-25 18:11:09,788,788,806,778,775,-0.74,1.69,10.42,-0.04,0.02,-0.01
2024-12-25 18:11:09,788,788,805,778,774,-0.80,1.71,10.45,-0.04,-0.01,-0.02
2024-12-25 18:11:09,789,791,805,778,774,-0.66,1.75,10.40,-0.04,-0.01,-0.02
2024-12-25 18:11:09,789,789,804,777,774,-0.71,1.77,10.47,-0.03,0.03,-0.01
2024-12-25 18:11:09,788,789,806,777,775,-0.62,1.65,10.48,-0.05,-0.02,-0.02
2024-12-25 18:11:09,788,790,806,777,774,-0.70,1.72,10.41,-0.04,0.01,-0.02
2024-12-25 18:11:09,790,789,804,777,774,-0.67,1.70,10.41,-0.04,0.03,-0.01
2024-12-25 18:11:09,786,788,806,777,774,-0.76,1.79,10.32,-0.09,0.03,-0.06
2024-12-25 18:11:09,790,793,805,777,774,-0.26,0.41,10.12,-0.49,0.16,-0.22
2024-12-25 18:11:09,789,783,800,775,773,-0.22,0.98,10.73,0.01,0.03,-0.10
2024-12-25 18:11:09,791,777,803,778,772,-0.34,0.50,10.64,-1.01,0.12,-0.07
2024-12-25 18:11:09,793,775,807,782,773,-0.45,-0.96,10.22,0.71,-0.62,-0.41
2024-12-25 18:11:09,794,775,810,780,772,-0.06,0.21,10.26,-0.13,0.28,0.15
2024-12-25 18:11:09,791,777,811,781,774,-0.09,0.54,10.70,0.05,0.01,-0.06
2024-12-25 18:11:09,791,787,815,782,775,0.23,0.82,10.58,0.23,0.12,0.12
2024-12-25 18:11:09,792,793,817,784,774,-0.25,1.13,10.51,0.03,0.02,0.08
2024-12-25 18:11:09,792,791,806,780,773,-0.12,1.80,10.88,0.56,0.08,0.36
2024-12-25 18:11:09,791,787,797,777,772,-0.23,1.99,10.37,-0.20,-0.04,-0.02
2024-12-25 18:11:09,789,788,799,777,771,-0.20,1.72,10.51,-0.07,0.02,-0.03
2024-12-25 18:11:09,791,788,801,777,772,-0.33,1.70,10.45,-0.04,0.02,-0.01
2024-12-25 18:11:09,791,788,802,776,772,-0.17,1.66,10.52,-0.04,0.03,-0.01
2024-12-25 18:11:09,790,788,801,776,771,-0.26,1.74,10.47,-0.04,0.02,-0.01
2024-12-25 18:11:09,791,787,799,776,772,-0.23,1.71,10.49,-0.04,0.02,-0.01
2024-12-25 18:11:09,790,788,800,776,771,-0.23,1.75,10.46,-0.03,0.00,-0.02
2024-12-25 18:11:09,789,787,800,776,770,-0.18,1.71,10.48,-0.05,0.02,-0.01
2024-12-25 18:11:09,793,788,801,776,771,-0.28,1.72,10.47,-0.04,0.03,-0.01
2024-12-25 18:11:09,790,790,803,778,770,-0.23,1.72,10.48,-0.04,0.02,-0.01
2024-12-25 18:11:09,790,789,801,775,771,-0.26,1.72,10.44,-0.04,0.03,-0.01
2024-12-25 18:11:09,790,789,804,777,771,-0.28,1.71,10.46,-0.04,0.03,-0.01
2024-12-25 18:11:09,789,790,802,777,771,-0.31,1.71,10.48,-0.04,0.04,-0.01
2024-12-25 18:11:09,791,788,802,778,773,-0.27,1.71,10.40,-0.04,0.03,-0.01
2024-12-25 18:11:09,790,790,801,777,770,-0.28,1.70,10.47,-0.04,0.03,-0.01
2024-12-25 18:11:09,790,789,800,776,772,-0.31,1.67,10.46,-0.04,0.03,-0.01
2024-12-25 18:11:09,790,791,801,776,770,-0.28,1.70,10.45,-0.04,0.03,-0.01
2024-12-25 18:11:09,790,789,800,777,770,-0.29,1.72,10.46,-0.04,0.03,-0.01
2024-12-25 18:11:09,791,789,802,778,774,-0.28,1.68,10.46,-0.04,0.03,-0.01
2024-12-25 18:11:09,787,788,801,775,771,-0.33,1.70,10.51,-0.04,0.01,-0.01
2024-12-25 18:11:09,791,790,800,776,772,-0.23,1.73,10.55,-0.04,0.07,0.01
2024-12-25 18:11:09,790,789,801,777,772,-0.19,1.63,10.66,-0.14,0.32,0.09
2024-12-25 18:11:09,791,788,799,775,771,-1.06,1.47,10.45,-0.15,0.22,0.18
2024-12-25 18:11:09,789,789,799,776,772,-1.78,1.12,9.92,-0.09,0.20,0.20
2024-12-25 18:11:09,791,791,801,776,772,-1.63,1.39,10.56,-0.12,0.16,-0.05
2024-12-25 18:11:09,791,796,802,777,774,-1.96,1.33,10.41,-0.00,0.08,-0.09
2024-12-25 18:11:09,791,800,808,783,777,-2.05,1.32,10.33,-0.04,0.05,-0.07
2024-12-25 18:11:09,792,802,809,784,777,-2.14,1.35,10.27,-0.07,0.01,-0.02
2024-12-25 18:11:09,793,802,812,786,779,-2.10,1.26,10.23,-0.05,-0.02,-0.00
2024-12-25 18:11:09,792,801,810,785,780,-1.91,1.13,10.29,-0.05,-0.01,-0.01
2024-12-25 18:11:09,791,801,811,785,778,-1.87,1.22,10.33,-0.04,0.03,0.01
2024-12-25 18:11:09,790,800,811,784,778,-1.90,1.11,10.31,-0.04,-0.01,-0.02
2024-12-25 18:11:09,791,798,808,785,778,-1.86,1.21,10.37,-0.04,-0.06,0.01
2024-12-25 18:11:09,790,797,810,784,777,-1.70,1.26,10.58,0.05,0.04,0.10
2024-12-25 18:11:09,787,796,805,782,776,-1.52,1.48,10.86,0.14,-0.31,0.12
2024-12-25 18:11:09,788,793,810,780,776,-0.70,1.22,10.11,-0.01,-0.39,-0.00
2024-12-25 18:11:09,787,796,809,779,775,-1.33,2.06,11.40,-0.20,0.27,-0.16
2024-12-25 18:11:09,788,795,823,783,775,-1.13,0.10,8.64,-0.74,-0.37,-0.28
2024-12-25 18:11:09,790,796,826,784,774,-1.99,-0.42,10.42,-0.18,0.69,0.09
2024-12-25 18:11:09,791,796,824,786,775,-2.26,-2.14,11.62,0.43,0.38,0.51
2024-12-25 18:11:09,790,798,825,786,774,-1.76,0.34,10.21,0.27,-0.19,0.12
2024-12-25 18:11:09,788,796,822,786,776,-1.08,1.44,10.41,0.67,-0.07,-0.11
2024-12-25 18:11:09,788,796,824,793,777,-1.59,2.64,10.49,0.16,0.16,0.02
2024-12-25 18:11:09,788,794,824,795,782,-1.55,2.49,10.16,0.03,0.06,0.06
2024-12-25 18:11:09,789,796,827,797,781,-1.59,2.60,10.10,-0.02,0.01,-0.02
2024-12-25 18:11:09,788,794,823,795,782,-1.57,2.60,10.07,-0.03,0.03,0.01
2024-12-25 18:11:09,788,794,825,795,781,-1.60,2.66,10.07,-0.04,0.02,-0.02
2024-12-25 18:11:09,788,796,824,796,783,-1.54,2.63,10.09,-0.03,0.04,-0.00
2024-12-25 18:11:09,786,795,822,795,783,-1.54,2.61,10.09,-0.03,0.02,-0.01
2024-12-25 18:11:09,788,794,824,795,783,-1.60,2.61,10.06,-0.06,-0.02,-0.03
2024-12-25 18:11:09,788,794,823,784,781,-1.44,2.51,10.11,-0.14,-0.11,-0.17
2024-12-25 18:11:09,788,794,805,776,778,-1.89,2.09,10.48,-0.37,-0.24,-0.15
2024-12-25 18:11:09,789,793,801,775,778,0.26,3.12,10.08,0.57,0.22,-0.54
2024-12-25 18:11:09,787,791,803,773,775,-0.64,0.99,8.47,-0.24,0.86,-0.12
2024-12-25 18:11:09,789,792,803,773,774,-1.25,2.87,8.48,-0.08,-0.11,0.11
2024-12-25 18:11:09,788,793,802,777,773,-0.40,2.77,10.35,-0.09,-0.03,0.00
2024-12-25 18:11:09,789,793,804,775,775,-1.04,2.81,10.02,-0.05,-0.07,0.02
2024-12-25 18:11:09,788,793,805,775,773,-0.71,2.75,10.25,-0.06,-0.07,-0.02
2024-12-25 18:11:09,789,793,805,776,775,-0.62,2.78,10.13,-0.05,0.05,-0.01
2024-12-25 18:11:09,788,793,804,776,774,-0.74,2.83,10.14,-0.04,0.04,-0.01
2024-12-25 18:11:09,788,793,804,776,774,-0.69,2.77,10.14,-0.04,0.02,-0.01
2024-12-25 18:11:09,791,792,806,777,774,-0.66,2.86,10.19,-0.04,0.01,-0.01
2024-12-25 18:11:09,787,793,804,774,774,-0.62,2.83,10.18,-0.04,0.02,-0.01
2024-12-25 18:11:09,788,793,805,778,777,-0.71,2.80,10.15,-0.04,0.02,-0.01
2024-12-25 18:11:09,788,792,805,776,774,-0.58,2.80,10.13,-0.04,0.02,-0.01
2024-12-25 18:11:09,788,794,804,776,773,-0.66,2.83,10.18,-0.04,0.03,-0.01
2024-12-25 18:11:09,788,792,804,776,774,-0.51,2.79,10.19,-0.04,0.04,-0.01
2024-12-25 18:11:09,788,793,804,776,774,-0.73,2.95,10.10,-0.03,-0.04,-0.01
2024-12-25 18:11:09,789,792,804,778,774,-0.57,2.88,10.14,-0.03,0.05,0.00
2024-12-25 18:11:09,788,792,803,776,774,-0.58,2.82,10.17,-0.04,0.02,-0.02
2024-12-25 18:11:09,790,792,804,777,775,-0.58,2.83,10.17,-0.04,0.02,-0.01
2024-12-25 18:11:09,789,791,804,776,775,-0.50,2.79,10.17,-0.04,-0.00,-0.02
2024-12-25 18:11:09,789,792,804,777,773,-0.55,2.85,10.17,-0.05,0.01,-0.01
2024-12-25 18:11:09,789,792,805,776,775,-0.50,2.85,10.15,-0.04,0.02,-0.01
2024-12-25 18:11:09,790,794,804,777,775,-0.50,2.80,10.19,-0.04,0.02,-0.01
2024-12-25 18:11:09,790,794,806,776,775,-0.50,2.78,10.16,-0.05,0.02,-0.01
2024-12-25 18:11:09,788,792,804,777,774,-0.47,2.86,10.23,-0.04,0.05,-0.01
2024-12-25 18:11:09,789,792,804,776,775,-0.53,2.87,10.19,-0.04,0.01,-0.01
2024-12-25 18:11:09,788,792,803,777,774,-0.58,2.83,10.18,-0.03,0.01,-0.01
2024-12-25 18:11:09,787,792,804,774,775,-0.40,2.75,10.20,-0.04,0.01,-0.01
2024-12-25 18:11:09,789,793,803,776,775,-0.45,2.77,10.19,-0.05,0.03,-0.02
2024-12-25 18:11:09,787,793,805,776,775,-0.50,2.84,10.18,-0.04,0.02,-0.01
2024-12-25 18:11:09,789,793,804,777,775,-0.43,2.81,10.21,-0.04,0.04,-0.01
2024-12-25 18:11:09,790,792,804,776,774,-0.56,2.84,10.14,-0.04,0.00,-0.02
2024-12-25 18:11:09,786,793,805,777,774,-0.41,2.89,10.21,-0.02,0.03,-0.01
2024-12-25 18:11:09,788,792,803,777,775,-0.34,2.86,10.14,-0.04,0.04,-0.01
2024-12-25 18:11:09,787,793,804,776,775,-0.51,2.83,10.13,-0.04,0.02,0.00
2024-12-25 18:11:09,785,793,803,776,774,-0.36,2.80,10.17,-0.04,0.04,-0.02
2024-12-25 18:11:09,791,792,803,776,775,-0.46,2.76,10.15,-0.04,0.03,-0.01
2024-12-25 18:11:09,787,793,805,777,774,-0.36,2.90,10.19,-0.07,0.04,-0.07
2024-12-25 18:11:09,791,794,806,777,775,-0.56,2.97,10.18,-0.02,0.02,0.01
2024-12-25 18:11:09,787,793,805,775,775,-0.34,2.87,10.18,-0.05,0.01,-0.03
2024-12-25 18:11:09,790,794,805,774,775,-0.80,2.81,10.16,-0.03,-0.01,-0.00
2024-12-25 18:11:09,788,792,803,776,774,-0.51,2.71,10.18,-0.07,0.05,-0.08
2024-12-25 18:11:09,788,793,804,776,773,-0.49,2.84,10.16,-0.03,0.04,0.00
2024-12-25 18:11:09,789,792,806,777,775,-0.53,2.67,10.16,-0.05,0.02,-0.02
2024-12-25 18:11:09,789,793,806,776,774,-0.59,2.84,10.14,-0.04,0.02,-0.03
2024-12-25 18:11:09,788,791,805,777,776,-0.57,2.81,10.23,-0.04,0.03,-0.01
2024-12-25 18:11:09,790,791,805,777,775,-0.47,2.77,10.13,-0.01,0.02,-0.01
2024-12-25 18:11:09,791,792,805,775,774,-0.71,2.83,10.18,-0.05,-0.00,-0.00
2024-12-25 18:11:09,790,790,805,777,775,-0.61,2.88,10.13,-0.02,0.01,0.01
2024-12-25 18:11:10,789,792,805,775,774,-0.51,2.88,10.23,-0.03,0.12,0.00
2024-12-25 18:11:10,790,792,806,777,774,-0.61,2.75,10.08,-0.06,-0.03,-0.01
2024-12-25 18:11:10,789,791,804,776,774,-0.75,2.86,10.14,-0.02,0.04,-0.03
2024-12-25 18:11:10,791,793,806,776,774,-0.72,2.72,10.08,-0.06,0.03,-0.01
2024-12-25 18:11:10,791,792,805,775,774,-0.51,2.82,10.16,-0.03,0.07,0.00
2024-12-25 18:11:10,789,792,803,775,774,-0.82,2.79,10.03,-0.08,0.02,-0.03
2024-12-25 18:11:10,788,793,804,776,774,-0.56,2.71,10.29,-0.05,0.10,0.01
2024-12-25 18:11:10,791,794,807,776,774,-1.02,2.39,9.91,-0.02,0.53,-0.01
2024-12-25 18:11:10,789,793,802,775,774,-1.79,1.32,9.87,-0.10,0.28,0.30
2024-12-25 18:11:10,789,795,803,772,774,-0.94,4.86,9.37,0.54,-0.28,0.28
2024-12-25 18:11:10,795,786,796,772,773,-2.78,4.11,9.21,0.52,0.40,-0.07
2024-12-25 18:11:10,798,789,792,771,775,-2.37,5.28,8.55,-0.06,0.72,-0.05
2024-12-25 18:11:10,794,787,794,772,772,-3.30,4.30,9.16,-0.45,-0.74,-0.16
2024-12-25 18:11:10,792,790,796,774,772,-2.04,3.15,9.51,-0.59,-0.93,-0.09
2024-12-25 18:11:10,793,793,803,775,771,-2.77,2.84,9.70,-0.08,0.14,-0.02
2024-12-25 18:11:10,790,794,807,776,771,-2.44,2.60,9.86,-0.14,0.10,-0.06
2024-12-25 18:11:10,790,794,807,775,773,-2.78,2.65,9.60,-0.06,0.03,-0.01
2024-12-25 18:11:10,792,795,808,778,773,-2.52,2.53,9.88,-0.09,0.05,-0.02
2024-12-25 18:11:10,791,793,806,776,773,-2.58,2.28,9.83,-0.09,0.12,-0.10
2024-12-25 18:11:10,790,794,805,776,771,-2.60,1.94,9.91,-0.32,-0.56,0.04
2024-12-25 18:11:10,790,795,808,775,771,-2.27,1.83,9.81,-0.73,0.17,0.11
2024-12-25 18:11:10,789,795,801,774,772,-1.28,1.68,10.06,0.55,-0.57,0.21
2024-12-25 18:11:10,789,785,790,771,768,-1.76,2.30,9.60,-0.09,0.40,-0.39
2024-12-25 18:11:10,789,780,791,770,769,-1.77,2.74,11.04,-2.55,-0.03,-0.23
2024-12-25 18:11:10,793,794,840,788,774,-0.54,-2.30,9.70,-0.54,0.36,0.00
2024-12-25 18:11:10,792,800,822,787,777,-1.74,-2.06,11.04,-0.13,-0.02,-0.16
2024-12-25 18:11:10,792,802,860,800,775,-1.60,-2.18,10.26,-0.48,-0.33,-0.04
2024-12-25 18:11:10,793,797,893,820,776,-1.40,-3.56,9.61,-0.49,-0.20,-0.02
2024-12-25 18:11:10,794,797,896,823,781,-1.07,-3.95,9.75,-0.27,-0.05,0.05
2024-12-25 18:11:10,793,797,904,824,779,-1.03,-4.28,9.54,-0.31,-0.11,0.16
2024-12-25 18:11:10,793,797,909,823,779,-0.92,-4.44,9.53,0.08,0.20,0.03
2024-12-25 18:11:10,793,797,826,800,777,-2.51,-3.20,9.95,1.77,1.33,-0.51
2024-12-25 18:11:10,791,788,799,784,777,-2.64,-1.97,10.16,-0.37,0.03,0.01
2024-12-25 18:11:10,794,800,848,794,778,-2.57,-3.01,9.92,-0.58,-0.17,-0.08
2024-12-25 18:11:10,794,829,899,821,784,-2.12,-3.61,9.50,-0.19,-0.11,-0.00
2024-12-25 18:11:10,796,852,905,826,787,-2.06,-3.78,8.94,0.60,0.19,-0.14
2024-12-25 18:11:10,790,796,808,772,776,-2.36,-1.60,10.92,-0.17,-0.08,-0.01
2024-12-25 18:11:10,790,844,880,805,781,-2.43,-2.98,9.72,-0.65,-0.02,-0.00
2024-12-25 18:11:10,789,866,912,831,799,-2.33,-3.73,9.03,-0.08,-0.02,0.05
2024-12-25 18:11:10,786,809,831,785,777,-2.21,-1.63,11.02,0.33,-0.07,-0.05
2024-12-25 18:11:10,786,852,892,812,783,-2.25,-2.64,9.87,-0.74,-0.08,0.06
2024-12-25 18:11:10,791,851,909,827,787,-2.09,-3.33,9.47,-0.30,-0.09,0.01
2024-12-25 18:11:10,787,785,808,777,777,-1.88,-1.23,11.13,0.23,0.02,0.05
2024-12-25 18:11:10,783,833,860,795,778,-1.91,-2.01,10.51,-1.37,-0.18,0.26
2024-12-25 18:11:10,790,883,915,835,793,-1.65,-3.81,9.94,-0.67,-0.18,0.02
2024-12-25 18:11:10,785,883,908,832,789,-1.89,-3.81,8.93,1.54,0.65,-0.25
2024-12-25 18:11:10,780,804,819,778,780,-2.42,-2.61,9.77,0.33,0.15,-0.08
2024-12-25 18:11:10,779,800,810,777,777,-2.21,-2.26,10.38,-0.45,-0.06,0.08
2024-12-25 18:11:10,783,869,894,815,784,-2.00,-3.67,9.70,-0.60,-0.15,-0.18
2024-12-25 18:11:10,790,896,923,843,793,-1.91,-4.09,9.52,-0.02,-0.14,-0.07
2024-12-25 18:11:10,785,829,873,802,784,-2.34,-2.95,9.68,2.07,0.64,-0.19
2024-12-25 18:11:10,782,790,811,774,779,-2.13,-1.92,9.80,-0.24,-0.06,0.16
2024-12-25 18:11:10,819,843,880,802,782,-2.00,-2.54,10.00,-0.67,-0.01,-0.09
2024-12-25 18:11:10,812,900,927,846,791,-1.77,-3.21,9.58,0.09,0.11,0.05
2024-12-25 18:11:10,793,798,824,781,781,-2.38,-1.68,10.58,0.70,0.20,0.04
2024-12-25 18:11:10,787,800,832,782,778,-2.43,-1.88,10.34,-0.75,0.03,0.04
2024-12-25 18:11:10,791,851,910,834,798,-2.22,-3.29,9.64,-0.62,-0.02,-0.08
2024-12-25 18:11:10,787,849,905,831,792,-2.33,-3.18,9.39,1.04,0.28,-0.06
2024-12-25 18:11:10,787,805,825,781,773,-2.34,-1.37,10.75,-0.03,-0.07,0.03
2024-12-25 18:11:10,791,806,854,788,773,-2.29,-2.31,10.18,-0.68,-0.15,0.03
2024-12-25 18:11:10,791,808,871,797,774,-2.11,-3.20,9.67,-0.32,-0.04,-0.03
2024-12-25 18:11:10,795,804,860,797,773,-1.64,-3.47,9.84,-0.25,-0.25,0.02
2024-12-25 18:11:10,794,802,846,793,772,-1.76,-3.25,9.42,0.80,0.32,-0.05
2024-12-25 18:11:10,793,800,823,787,772,-2.21,-2.13,10.07,0.23,0.24,-0.02
2024-12-25 18:11:10,793,801,816,786,774,-2.23,-1.65,10.35,-0.04,-0.03,-0.01
2024-12-25 18:11:10,790,801,820,785,775,-2.29,-1.64,10.18,0.22,0.02,-0.00
2024-12-25 18:11:10,785,786,791,772,774,-2.41,1.12,10.43,1.15,0.02,0.15
2024-12-25 18:11:10,774,778,787,767,775,-2.71,2.23,9.90,0.43,0.10,0.16
2024-12-25 18:11:10,774,779,788,766,770,-2.68,1.98,10.00,-0.31,-0.09,0.38
2024-12-25 18:11:10,784,792,804,776,769,-2.40,1.05,10.52,-0.70,0.15,-0.07
2024-12-25 18:11:10,785,793,806,777,769,-4.13,1.40,9.54,-0.59,-0.65,-0.01
2024-12-25 18:11:10,789,793,809,776,769,-3.30,0.16,8.66,0.09,-0.03,-0.45
2024-12-25 18:11:10,789,794,805,774,770,-2.88,-0.52,11.29,0.11,-0.18,-0.18
2024-12-25 18:11:10,789,795,806,774,770,-3.00,-0.21,10.03,-0.20,0.16,0.15
2024-12-25 18:11:10,790,795,807,775,769,-3.42,-0.03,9.86,0.07,0.08,0.06
2024-12-25 18:11:10,791,797,812,777,770,-3.29,-0.34,10.14,-0.13,-0.17,-0.05
2024-12-25 18:11:10,793,796,821,778,771,-3.39,-1.22,9.96,-0.61,0.25,0.15
2024-12-25 18:11:10,792,799,824,780,771,-3.45,-1.63,9.57,-0.24,0.06,-0.05
2024-12-25 18:11:10,791,798,824,782,770,-3.27,-1.98,9.74,-0.16,0.07,-0.02
2024-12-25 18:11:10,791,799,829,786,770,-3.43,-2.44,9.60,-0.00,0.07,-0.07
2024-12-25 18:11:10,791,799,828,786,770,-3.42,-2.21,9.75,-0.01,0.10,0.03
2024-12-25 18:11:10,791,795,815,781,769,-3.21,-1.88,9.71,1.09,-0.52,-0.12
2024-12-25 18:11:10,781,786,790,767,762,-1.75,0.74,10.92,0.75,0.43,0.30
2024-12-25 18:11:10,773,778,784,764,764,-2.46,1.96,9.53,0.12,-0.17,0.41
2024-12-25 18:11:10,773,778,785,764,764,-3.00,2.34,10.00,-0.01,0.10,-0.16
2024-12-25 18:11:10,774,779,784,765,765,-2.93,1.79,10.20,-0.16,0.17,-0.05
2024-12-25 18:11:10,776,778,787,766,764,-2.53,1.86,9.36,-0.17,0.07,0.10
2024-12-25 18:11:10,772,778,785,764,763,-4.01,1.61,9.95,-0.05,0.04,0.14
2024-12-25 18:11:10,776,780,787,765,766,-3.35,1.36,9.46,-0.19,0.11,0.03
2024-12-25 18:11:10,775,780,786,766,765,-3.48,1.23,9.52,-0.13,0.10,-0.05
2024-12-25 18:11:10,780,782,788,766,767,-2.64,1.34,9.78,0.02,-0.06,0.05
2024-12-25 18:11:10,782,782,789,767,766,-4.06,1.23,10.16,0.08,0.09,0.09
2024-12-25 18:11:10,781,783,787,767,766,-3.29,1.40,9.54,-0.18,0.07,-0.08
2024-12-25 18:11:10,781,784,790,768,765,-3.27,1.16,10.04,0.03,-0.03,-0.03
2024-12-25 18:11:10,784,786,792,767,769,-3.44,1.14,10.05,-0.34,0.01,-0.05
2024-12-25 18:11:10,784,785,792,768,766,-3.47,0.46,10.07,-0.33,0.03,-0.04
2024-12-25 18:11:10,786,788,806,769,767,-3.73,-1.14,10.95,-1.83,-0.28,-0.44
2024-12-25 18:11:10,787,786,875,802,779,-2.36,-4.29,9.54,-2.07,-0.51,0.15
2024-12-25 18:11:10,788,780,906,822,788,-2.08,-6.17,7.11,-1.79,-0.11,0.33
2024-12-25 18:11:11,788,768,906,825,778,-2.86,-7.66,4.35,-0.97,0.24,0.36
2024-12-25 18:11:11,792,763,919,835,772,-3.21,-8.30,3.60,-0.25,0.34,0.29
2024-12-25 18:11:11,790,761,910,828,766,-4.14,-7.86,3.25,-0.17,0.36,0.30
2024-12-25 18:11:11,788,763,909,826,763,-4.74,-8.25,3.39,-0.01,-0.16,-0.06
2024-12-25 18:11:11,788,763,916,832,766,-4.12,-8.35,3.92,-0.29,-0.00,-0.15
2024-12-25 18:11:12,790,764,919,834,767,-3.95,-8.69,2.72,-0.64,0.20,-0.14
2024-12-25 18:11:12,790,762,916,832,766,-4.35,-8.63,1.53,-0.21,0.03,0.04
2024-12-25 18:11:12,791,764,915,833,767,-3.57,-8.78,2.05,-0.05,-0.12,-0.28
2024-12-25 18:11:12,791,761,921,839,769,-3.95,-9.03,1.59,-0.16,0.03,-0.01
2024-12-25 18:11:12,791,765,922,839,771,-3.74,-9.06,1.74,-0.20,0.04,-0.10
2024-12-25 18:11:13,795,763,919,840,771,-3.55,-9.15,1.09,-0.17,-0.00,-0.05
2024-12-25 18:11:13,792,762,919,839,770,-3.54,-9.18,1.07,-0.16,0.05,-0.08
2024-12-25 18:11:13,789,764,922,840,770,-3.50,-9.05,0.90,-0.05,0.03,-0.00
2024-12-25 18:11:13,782,761,918,838,769,-3.49,-9.12,0.76,-0.14,0.11,-0.02
2024-12-25 18:11:13,786,764,918,839,768,-3.63,-9.31,0.74,-0.16,0.09,-0.12
2024-12-25 18:11:13,785,763,917,837,767,-3.70,-9.84,0.77,0.02,-1.04,-1.07
2024-12-25 18:11:14,786,763,919,839,766,-1.66,-9.17,-0.76,-0.44,0.17,0.13
2024-12-25 18:11:14,786,763,919,837,768,-1.93,-9.37,-1.06,0.10,-0.03,-0.04
2024-12-25 18:11:14,788,764,917,837,767,-2.56,-9.18,-0.09,0.65,0.27,0.42
2024-12-25 18:11:14,787,765,917,837,767,-2.97,-9.42,2.50,0.32,0.17,-0.16
2024-12-25 18:11:14,788,764,917,837,767,-3.11,-9.30,2.27,0.04,0.23,0.12
2024-12-25 18:11:15,787,764,917,836,768,-2.96,-9.33,1.53,-0.13,0.05,-0.11
2024-12-25 18:11:15,789,764,917,837,768,-2.83,-9.08,1.13,-0.07,-0.03,0.01
2024-12-25 18:11:15,788,764,917,836,767,-3.15,-9.49,1.27,-0.02,0.01,-0.07
2024-12-25 18:11:15,787,765,917,837,768,-2.80,-9.31,1.41,-0.01,-0.01,-0.05
2024-12-25 18:11:15,788,767,918,836,767,-2.99,-9.50,1.65,-0.06,0.05,0.02
2024-12-25 18:11:16,788,765,917,836,766,-2.72,-9.32,1.35,-0.04,0.04,-0.03
2024-12-25 18:11:16,788,765,917,837,770,-2.77,-9.45,1.35,-0.07,0.00,0.00
2024-12-25 18:11:16,788,765,918,834,767,-2.85,-9.40,1.40,-0.05,0.01,-0.02
2024-12-25 18:11:16,788,764,917,837,768,-2.80,-9.39,1.43,-0.03,-0.05,-0.03
2024-12-25 18:11:16,790,764,918,835,769,-2.74,-9.48,1.47,-0.03,0.03,-0.01
2024-12-25 18:11:16,788,767,916,836,768,-2.85,-9.39,1.36,-0.07,0.03,-0.03
2024-12-25 18:11:17,788,766,916,836,768,-2.74,-9.38,1.35,-0.04,0.01,-0.03
2024-12-25 18:11:17,790,765,914,836,769,-2.70,-9.38,1.26,-0.03,0.02,-0.02
2024-12-25 18:11:17,787,766,917,835,769,-2.77,-9.42,1.31,-0.03,0.00,-0.04
2024-12-25 18:11:17,788,767,917,834,768,-2.78,-9.42,1.38,-0.01,-0.01,-0.04
2024-12-25 18:11:17,789,766,916,836,769,-2.72,-9.41,1.34,-0.05,0.04,-0.01
2024-12-25 18:11:18,790,765,917,835,769,-2.72,-9.40,1.16,-0.05,0.01,-0.01
2024-12-25 18:11:18,788,764,916,835,768,-2.71,-9.48,1.20,-0.07,0.04,-0.00
2024-12-25 18:11:18,787,765,917,836,768,-2.71,-9.39,1.17,-0.05,-0.03,-0.05
2024-12-25 18:11:18,787,766,914,835,768,-2.67,-9.42,1.41,0.01,-0.02,-0.03
2024-12-25 18:11:18,787,765,917,834,768,-2.67,-9.49,1.26,-0.04,-0.02,-0.01
2024-12-25 18:11:19,788,766,916,835,769,-2.76,-9.49,1.25,-0.01,0.02,0.00
2024-12-25 18:11:19,787,764,915,835,768,-2.65,-9.37,1.24,-0.04,0.02,-0.02
2024-12-25 18:11:19,788,766,917,834,768,-2.70,-9.39,1.34,-0.03,0.03,0.00
2024-12-25 18:11:19,788,765,917,835,768,-2.75,-9.36,1.36,-0.08,0.04,-0.02
2024-12-25 18:11:19,787,766,916,834,768,-2.69,-9.41,1.17,-0.02,0.01,-0.02
2024-12-25 18:11:19,787,765,917,835,769,-2.69,-9.40,1.37,0.00,-0.01,-0.03
2024-12-25 18:11:20,787,765,915,833,768,-2.66,-9.44,1.34,-0.04,0.01,-0.01
2024-12-25 18:11:20,787,765,915,835,770,-2.60,-9.31,1.48,0.02,-0.03,-0.05
2024-12-25 18:11:20,787,768,915,835,767,-2.84,-9.48,1.35,-0.02,-0.00,-0.03
2024-12-25 18:11:20,788,766,914,836,768,-2.68,-9.39,1.46,-0.05,0.05,-0.01
2024-12-25 18:11:20,788,768,914,836,769,-2.65,-9.44,1.45,-0.05,0.03,-0.01
2024-12-25 18:11:21,787,765,912,835,768,-2.65,-9.37,1.37,-0.04,0.02,-0.03
2024-12-25 18:11:21,787,766,916,835,769,-2.75,-9.44,1.39,-0.03,0.02,-0.02
2024-12-25 18:11:21,789,764,917,833,769,-2.66,-9.43,1.37,-0.02,0.03,-0.01
2024-12-25 18:11:21,787,765,916,836,768,-2.69,-9.43,1.33,-0.09,0.03,-0.01
2024-12-25 18:11:21,788,767,915,835,769,-2.67,-9.41,1.24,-0.05,0.03,0.01
2024-12-25 18:11:22,789,765,914,834,770,-2.69,-9.38,1.26,-0.05,-0.01,-0.03
2024-12-25 18:11:22,789,766,916,835,770,-2.73,-9.46,1.25,-0.04,0.02,-0.01
2024-12-25 18:11:22,788,767,914,834,768,-2.65,-9.45,1.40,-0.03,0.03,-0.01
2024-12-25 18:11:22,789,767,914,834,769,-2.81,-9.39,1.24,-0.06,0.01,-0.01
2024-12-25 18:11:22,788,765,916,834,768,-2.67,-9.51,1.24,-0.04,0.06,0.01
2024-12-25 18:11:22,787,766,913,834,768,-2.74,-9.32,1.21,-0.07,-0.01,0.01
2024-12-25 18:11:23,790,766,914,834,768,-2.77,-9.43,1.24,-0.05,0.03,-0.01
2024-12-25 18:11:23,790,766,913,832,768,-2.78,-9.32,1.15,-0.06,0.04,-0.01
2024-12-25 18:11:23,790,767,913,835,769,-2.75,-9.40,1.17,-0.02,0.03,-0.03
2024-12-25 18:11:23,790,768,915,836,769,-2.73,-9.40,1.12,-0.05,0.01,-0.01
2024-12-25 18:11:23,789,766,915,835,769,-2.75,-9.46,1.17,-0.03,0.02,-0.00
2024-12-25 18:11:24,790,767,914,833,769,-2.73,-9.35,1.19,-0.03,0.01,-0.01
2024-12-25 18:11:24,789,768,915,835,768,-2.80,-9.47,1.09,-0.06,0.01,0.01
2024-12-25 18:11:24,787,765,912,834,769,-2.81,-9.34,1.15,-0.04,0.02,-0.03
2024-12-25 18:11:24,790,766,914,835,769,-2.85,-9.42,1.12,-0.05,0.02,-0.01
2024-12-25 18:11:24,791,767,913,834,769,-2.85,-9.48,1.15,-0.04,0.03,-0.02
2024-12-25 18:11:25,789,767,914,834,768,-2.84,-9.36,1.08,-0.03,0.02,-0.01
2024-12-25 18:11:25,789,768,914,833,770,-2.78,-9.38,1.20,-0.04,0.01,-0.02
2024-12-25 18:11:25,787,766,914,835,767,-2.87,-9.39,1.15,-0.04,0.02,-0.02
2024-12-25 18:11:25,790,766,915,835,768,-2.81,-9.55,1.05,-0.08,0.01,0.01
2024-12-25 18:11:25,790,768,913,834,768,-2.62,-9.23,1.06,-0.01,0.01,-0.07
2024-12-25 18:11:25,789,766,913,834,769,-3.00,-9.49,1.22,-0.03,0.01,0.02
2024-12-25 18:11:26,788,768,915,835,768,-2.56,-9.39,1.22,-0.03,0.07,-0.02
2024-12-25 18:11:26,789,767,913,834,768,-2.93,-9.48,1.09,-0.04,0.03,0.01
2024-12-25 18:11:26,789,766,915,834,767,-2.87,-9.35,0.91,-0.02,0.01,-0.02
2024-12-25 18:11:26,791,767,914,835,769,-2.73,-9.44,1.00,-0.05,-0.01,-0.01
2024-12-25 18:11:26,788,767,911,834,768,-3.11,-9.39,1.15,-0.03,0.03,-0.04
2024-12-25 18:11:27,790,768,916,833,769,-2.81,-9.52,1.06,-0.07,0.01,-0.01
2024-12-25 18:11:27,789,768,914,834,767,-2.81,-9.35,1.26,-0.03,0.01,-0.01
2024-12-25 18:11:27,787,766,913,833,769,-3.06,-9.34,1.21,-0.09,0.03,-0.01
2024-12-25 18:11:27,792,766,916,834,769,-2.92,-9.29,1.00,-0.02,0.00,-0.01
2024-12-25 18:11:27,790,766,914,832,768,-2.96,-9.30,1.21,0.02,-0.04,0.01
2024-12-25 18:11:28,790,768,915,834,768,-2.91,-9.20,1.41,-0.06,-0.01,-0.05
2024-12-25 18:11:28,792,767,915,834,770,-3.12,-9.35,1.48,-0.01,0.03,0.01
2024-12-25 18:11:28,788,769,915,833,768,-2.97,-9.36,1.39,0.01,0.02,-0.00
2024-12-25 18:11:28,790,769,913,834,768,-3.02,-9.30,1.44,-0.01,0.02,-0.01
2024-12-25 18:11:28,787,768,915,833,768,-3.04,-9.33,1.47,-0.11,0.02,-0.08
2024-12-25 18:11:28,790,768,914,833,769,-2.99,-9.29,1.50,-0.12,0.04,0.11
2024-12-25 18:11:29,789,770,915,834,768,-2.84,-9.28,1.13,-0.09,0.06,-0.06
2024-12-25 18:11:29,791,768,914,834,770,-2.86,-9.36,1.05,-0.13,-0.08,-0.01
2024-12-25 18:11:29,790,769,914,834,770,-3.09,-9.38,0.86,-0.17,-0.05,0.01
2024-12-25 18:11:29,790,768,915,833,769,-2.83,-9.12,0.84,-0.04,0.05,-0.02
2024-12-25 18:11:29,790,767,915,834,771,-2.88,-9.33,0.90,0.01,0.08,0.03
2024-12-25 18:11:30,793,767,914,833,767,-3.01,-9.48,0.82,-0.02,0.05,0.06
2024-12-25 18:11:30,792,769,915,835,768,-3.08,-9.27,0.90,-0.01,0.06,0.05
2024-12-25 18:11:30,792,767,913,833,766,-3.19,-9.45,0.89,-0.07,0.03,-0.05
2024-12-25 18:11:30,791,768,914,834,769,-3.08,-9.21,0.61,-0.06,0.02,-0.05
2024-12-25 18:11:30,793,767,913,833,766,-3.03,-9.53,0.64,-0.07,0.03,0.01
2024-12-25 18:11:31,793,767,913,832,768,-3.02,-9.11,0.57,-0.03,-0.01,-0.02
2024-12-25 18:11:31,791,769,917,832,769,-3.22,-9.38,0.86,-0.05,-0.00,-0.01
2024-12-25 18:11:31,789,766,913,834,767,-3.08,-9.09,0.83,-0.03,0.11,0.02
2024-12-25 18:11:31,782,767,912,833,767,-3.24,-8.89,0.96,0.12,0.20,0.03
2024-12-25 18:11:31,778,769,916,832,766,-3.28,-9.24,0.71,-0.15,0.05,0.02
2024-12-25 18:11:31,775,768,913,831,766,-3.04,-9.17,0.79,-0.12,-0.01,-0.07
2024-12-25 18:11:32,777,768,913,831,765,-3.29,-9.28,0.57,-0.01,0.01,-0.02
2024-12-25 18:11:32,779,769,912,833,766,-3.12,-9.17,0.63,0.05,0.00,0.06
2024-12-25 18:11:32,777,767,912,832,767,-3.26,-9.07,0.96,0.06,-0.03,0.02
2024-12-25 18:11:32,778,767,912,832,766,-3.55,-9.23,1.23,0.08,-0.01,-0.03
2024-12-25 18:11:32,780,768,914,833,769,-3.37,-9.18,1.08,-0.04,-0.01,-0.04
2024-12-25 18:11:33,778,770,913,831,765,-3.23,-9.23,1.36,0.00,0.05,-0.07
2024-12-25 18:11:33,780,768,912,832,766,-3.35,-9.32,1.51,-0.05,0.05,0.00
2024-12-25 18:11:33,780,770,915,833,768,-3.04,-9.21,1.30,-0.04,0.04,-0.04
2024-12-25 18:11:33,780,768,914,832,766,-3.00,-9.51,1.34,-0.09,0.07,-0.02
2024-12-25 18:11:33,781,768,913,830,767,-3.02,-9.28,0.96,-0.07,0.07,-0.11
2024-12-25 18:11:33,782,769,914,832,767,-3.16,-9.17,1.33,-0.00,-0.00,-0.01
2024-12-25 18:11:34,780,770,911,831,768,-2.79,-9.23,0.93,0.05,0.05,0.01
2024-12-25 18:11:34,784,769,914,833,767,-3.07,-9.42,1.18,0.12,0.09,0.01
2024-12-25 18:11:34,784,770,913,830,768,-3.20,-9.10,1.52,-0.13,0.08,-0.00
2024-12-25 18:11:34,782,769,911,830,766,-2.97,-9.29,1.09,-0.13,-0.02,-0.02
2024-12-25 18:11:34,781,770,912,834,768,-3.09,-9.16,1.51,-0.07,-0.02,-0.03
2024-12-25 18:11:35,783,770,911,830,766,-3.47,-9.28,1.35,0.00,-0.02,0.04
2024-12-25 18:11:35,784,770,912,831,767,-3.16,-9.25,1.32,-0.09,0.02,-0.02
2024-12-25 18:11:35,783,769,913,830,767,-3.22,-9.25,1.21,-0.07,0.02,-0.02
2024-12-25 18:11:35,784,767,914,833,766,-3.31,-9.27,1.06,-0.15,0.07,0.08
2024-12-25 18:11:35,783,769,911,832,767,-3.14,-9.03,1.02,-0.04,0.00,-0.04
2024-12-25 18:11:36,784,769,910,831,766,-3.19,-9.47,0.89,-0.03,0.09,-0.03
2024-12-25 18:11:36,782,769,914,831,767,-3.14,-9.18,0.91,-0.12,0.02,0.02
2024-12-25 18:11:36,782,770,913,832,767,-3.59,-9.11,0.48,-0.22,-0.05,0.02
2024-12-25 18:11:36,785,769,912,830,767,-3.37,-9.11,0.56,-0.01,0.05,0.00
2024-12-25 18:11:36,784,771,912,832,767,-3.53,-9.15,0.54,0.03,-0.01,-0.08
2024-12-25 18:11:36,783,771,912,831,767,-3.32,-9.18,0.75,0.00,0.03,-0.01
2024-12-25 18:11:37,784,770,912,830,767,-3.39,-9.17,0.72,-0.03,0.03,-0.04
2024-12-25 18:11:37,783,770,914,831,767,-3.32,-9.26,0.76,-0.01,0.02,-0.05
2024-12-25 18:11:37,783,770,912,830,768,-3.15,-9.26,0.86,0.00,0.00,-0.05
2024-12-25 18:11:37,781,770,911,830,766,-3.15,-9.35,0.80,-0.07,0.03,0.00
2024-12-25 18:11:37,783,770,912,831,767,-3.25,-9.21,0.70,-0.05,0.04,-0.01
2024-12-25 18:11:38,782,771,915,832,768,-3.30,-9.29,0.80,-0.03,0.02,-0.00
2024-12-25 18:11:38,783,770,912,831,765,-3.23,-9.22,0.79,-0.04,0.03,-0.00
2024-12-25 18:11:38,783,771,911,831,766,-3.19,-9.28,0.86,-0.01,0.01,-0.06
2024-12-25 18:11:38,782,770,912,830,767,-3.19,-9.22,0.86,-0.06,0.05,-0.01
2024-12-25 18:11:38,784,772,913,829,768,-3.00,-9.29,0.81,0.01,0.01,-0.04
2024-12-25 18:11:39,786,771,913,832,766,-3.11,-9.25,0.89,-0.04,0.02,-0.02
2024-12-25 18:11:39,783,769,912,831,767,-3.14,-9.29,0.90,-0.00,0.02,-0.03
2024-12-25 18:11:39,782,773,912,831,767,-3.15,-9.24,0.86,-0.05,0.01,-0.03
2024-12-25 18:11:39,783,774,913,831,768,-3.06,-9.31,0.92,-0.02,0.01,-0.02
2024-12-25 18:11:39,783,773,911,831,767,-2.99,-9.31,0.94,-0.02,0.01,-0.02
2024-12-25 18:11:39,784,772,913,830,768,-3.09,-9.31,1.00,-0.02,0.02,-0.02
2024-12-25 18:11:40,782,773,913,829,766,-3.12,-9.32,0.63,-0.04,0.05,0.01
2024-12-25 18:11:40,782,772,915,833,767,-3.13,-9.33,1.32,-0.07,0.07,-0.11
2024-12-25 18:11:40,784,771,915,832,767,-3.12,-9.29,0.43,0.02,0.01,0.02
2024-12-25 18:11:40,782,771,913,833,768,-2.72,-9.28,0.88,0.08,0.02,0.03
2024-12-25 18:11:40,783,771,910,829,766,-3.61,-9.41,0.98,0.31,-0.07,0.03
2024-12-25 18:11:41,783,771,909,829,764,-3.17,-9.06,1.37,-0.16,-0.00,-0.05
2024-12-25 18:11:41,785,770,911,829,767,-2.91,-9.53,1.16,0.04,0.04,-0.03
2024-12-25 18:11:41,784,771,908,829,765,-3.37,-8.90,0.84,-0.10,-0.08,0.00
2024-12-25 18:11:41,788,770,912,830,766,-3.35,-9.30,1.11,-0.02,0.04,-0.09
2024-12-25 18:11:41,785,770,915,830,765,-3.15,-9.06,0.86,-0.11,0.04,-0.01
2024-12-25 18:11:42,783,772,914,830,765,-2.92,-9.45,1.12,-0.02,0.05,-0.11
2024-12-25 18:11:42,783,770,913,832,767,-3.31,-9.14,0.57,-0.05,0.05,-0.01
2024-12-25 18:11:42,785,770,913,829,766,-2.49,-9.55,1.02,0.04,0.01,-0.00
2024-12-25 18:11:42,785,770,914,830,767,-3.29,-9.17,0.68,-0.01,0.00,-0.02
2024-12-25 18:11:42,784,769,914,831,767,-2.70,-9.36,1.55,0.02,-0.01,-0.03
2024-12-25 18:11:42,782,772,912,831,766,-3.34,-9.11,1.39,-0.09,0.03,-0.03
2024-12-25 18:11:43,785,771,912,829,766,-2.88,-9.50,1.56,-0.02,0.06,-0.05
2024-12-25 18:11:43,785,770,910,829,765,-2.70,-9.52,1.00,0.00,0.02,0.05
2024-12-25 18:11:43,785,769,911,829,768,-3.06,-9.09,1.65,-0.00,0.02,0.01
2024-12-25 18:11:43,786,769,911,830,766,-2.41,-9.52,1.27,0.04,-0.01,0.00
2024-12-25 18:11:43,786,772,912,831,767,-2.96,-9.15,1.51,-0.03,-0.01,-0.07
2024-12-25 18:11:44,784,772,912,831,769,-3.14,-9.29,1.98,0.02,0.06,0.02
2024-12-25 18:11:44,784,772,912,829,768,-2.74,-9.24,1.78,-0.05,0.07,-0.05
2024-12-25 18:11:44,789,770,911,830,767,-3.34,-9.34,1.92,0.06,-0.04,0.27
2024-12-25 18:11:44,787,772,911,829,767,-3.34,-9.43,2.22,-0.15,0.10,-0.06
2024-12-25 18:11:44,787,773,912,830,769,-2.89,-9.10,1.82,-0.26,-0.02,-0.06
2024-12-25 18:11:45,787,771,910,831,768,-2.81,-9.15,1.49,-0.13,0.03,-0.10
2024-12-25 18:11:45,787,771,911,830,766,-3.18,-9.43,1.43,0.11,0.04,-0.08
2024-12-25 18:11:45,788,774,915,830,769,-2.60,-9.45,1.83,0.03,0.07,-0.11
2024-12-25 18:11:45,789,771,912,829,767,-2.80,-9.43,1.60,-0.16,-0.03,0.01
2024-12-25 18:11:45,788,771,913,830,767,-2.65,-9.31,1.40,-0.21,0.02,-0.01
2024-12-25 18:11:45,790,767,909,828,765,-2.93,-9.31,1.14,0.03,0.13,0.08
2024-12-25 18:11:46,788,767,910,826,762,-2.95,-9.30,1.12,0.00,0.09,0.01
2024-12-25 18:11:46,789,768,908,826,762,-3.05,-9.40,1.38,-0.01,0.04,-0.00
2024-12-25 18:11:46,787,768,910,826,762,-2.95,-9.47,1.31,-0.07,-0.04,-0.01
2024-12-25 18:11:46,788,766,910,826,760,-2.92,-9.17,1.37,-0.00,0.03,-0.01
2024-12-25 18:11:46,789,767,911,826,762,-3.09,-9.35,1.34,-0.04,0.08,-0.00
2024-12-25 18:11:47,788,767,910,827,764,-2.77,-9.17,1.28,0.02,0.03,-0.08
2024-12-25 18:11:47,788,764,909,826,760,-2.87,-9.41,1.68,0.05,-0.01,-0.04
2024-12-25 18:11:47,788,768,909,826,762,-2.73,-9.44,1.82,0.02,0.04,-0.04
2024-12-25 18:11:47,788,767,911,826,762,-2.58,-9.37,1.62,-0.05,0.06,-0.01
2024-12-25 18:11:47,788,766,910,827,761,-2.59,-9.42,1.62,-0.02,0.03,-0.02
2024-12-25 18:11:48,789,767,913,828,763,-2.77,-9.36,1.78,-0.05,0.03,-0.01
2024-12-25 18:11:48,787,767,910,825,762,-2.36,-9.39,1.66,-0.03,0.05,-0.09
2024-12-25 18:11:48,789,768,911,827,763,-2.72,-9.47,1.68,-0.03,0.01,0.02
2024-12-25 18:11:48,792,770,910,827,763,-2.61,-9.44,1.53,-0.03,0.03,0.00
2024-12-25 18:11:48,788,770,909,826,762,-2.53,-9.39,1.69,-0.04,-0.00,-0.03
2024-12-25 18:11:48,788,768,911,828,762,-2.62,-9.46,1.81,-0.05,0.01,-0.00
2024-12-25 18:11:49,787,767,909,826,762,-2.66,-9.41,1.64,-0.04,0.01,-0.01
2024-12-25 18:11:49,789,767,908,826,763,-2.60,-9.35,1.80,-0.06,0.02,-0.03
2024-12-25 18:11:49,787,768,911,826,763,-2.66,-9.34,1.88,-0.03,0.04,-0.02
2024-12-25 18:11:49,788,768,908,826,763,-2.53,-9.40,1.75,-0.04,0.04,-0.01
2024-12-25 18:11:49,786,767,910,826,761,-2.54,-9.54,1.87,0.01,0.02,-0.02
2024-12-25 18:11:50,791,769,912,824,763,-2.66,-9.34,1.72,-0.10,0.04,0.01
2024-12-25 18:11:50,788,767,910,825,761,-2.12,-9.23,1.82,-0.01,-0.01,-0.15
2024-12-25 18:11:50,788,768,910,825,762,-2.94,-9.63,1.77,0.03,-0.07,0.06
2024-12-25 18:11:50,788,767,908,830,762,-3.29,-9.27,1.84,-0.06,-0.05,-0.05
2024-12-25 18:11:50,788,768,912,826,762,-2.40,-9.36,1.94,0.04,0.06,0.04
2024-12-25 18:11:51,789,769,909,827,762,-2.47,-9.37,1.65,-0.04,0.04,-0.05
2024-12-25 18:11:51,789,769,912,826,764,-2.48,-9.47,1.96,-0.04,-0.04,-0.04
2024-12-25 18:11:51,787,771,910,827,762,-2.64,-9.58,1.81,-0.02,0.04,-0.01
2024-12-25 18:11:51,789,769,910,825,762,-2.45,-9.39,1.93,-0.17,0.07,0.03
2024-12-25 18:11:51,785,768,909,824,763,-2.69,-9.30,1.42,-0.08,0.06,0.03
2024-12-25 18:11:51,788,769,911,825,762,-2.59,-9.42,1.50,0.01,0.03,-0.05
2024-12-25 18:11:52,788,770,912,824,762,-2.51,-9.53,1.55,-0.01,0.04,-0.05
2024-12-25 18:11:52,786,769,911,825,762,-2.47,-9.48,1.83,0.04,-0.03,0.02
2024-12-25 18:11:52,788,770,912,826,763,-2.49,-9.39,1.81,0.10,-0.01,-0.03
2024-12-25 18:11:52,788,769,910,826,762,-2.71,-9.49,2.49,-0.03,-0.03,0.10
2024-12-25 18:11:52,788,769,911,826,761,-2.42,-9.34,2.10,-0.06,0.07,-0.07
2024-12-25 18:11:53,788,771,910,826,765,-2.57,-9.44,2.00,-0.01,-0.04,0.05
2024-12-25 18:11:53,787,770,911,828,761,-2.58,-9.35,2.15,-0.04,0.02,-0.05
2024-12-25 18:11:53,787,771,910,826,761,-2.57,-9.37,2.11,-0.01,0.03,-0.01
2024-12-25 18:11:53,789,771,911,826,762,-2.52,-9.39,2.27,-0.03,0.01,-0.02
2024-12-25 18:11:53,788,770,909,827,763,-2.49,-9.33,2.22,0.02,0.05,-0.03
2024-12-25 18:11:54,789,773,910,827,762,-2.40,-9.43,2.22,-0.09,0.03,-0.04
2024-12-25 18:11:54,788,772,909,826,763,-2.59,-9.39,2.32,-0.08,0.05,0.00
2024-12-25 18:11:54,787,771,912,828,761,-2.50,-9.20,2.12,-0.07,0.08,-0.01
2024-12-25 18:11:54,789,772,912,828,762,-2.25,-9.59,2.09,0.03,0.01,-0.07
2024-12-25 18:11:54,786,772,910,825,762,-2.61,-9.51,2.49,-0.03,-0.01,0.02
2024-12-25 18:11:54,788,774,910,825,763,-2.52,-9.26,2.04,-0.08,0.02,0.00
2024-12-25 18:11:55,788,772,911,826,763,-2.41,-9.49,2.27,-0.12,0.05,-0.02
2024-12-25 18:11:55,788,773,909,824,762,-2.26,-9.41,2.12,-0.05,0.06,-0.04
2024-12-25 18:11:55,787,772,910,826,763,-2.30,-9.51,2.04,-0.07,0.09,-0.02
2024-12-25 18:11:55,789,773,910,828,764,-2.38,-9.46,1.99,-0.10,0.09,0.02
2024-12-25 18:11:55,788,772,908,824,761,-2.41,-9.38,1.84,-0.10,0.09,0.01
2024-12-25 18:11:56,790,771,910,826,763,-2.41,-9.34,1.67,-0.03,0.01,-0.05
2024-12-25 18:11:56,787,770,910,826,764,-2.41,-9.51,1.82,-0.02,-0.01,-0.04
2024-12-25 18:11:56,789,771,912,825,762,-2.42,-9.50,1.96,-0.02,0.03,-0.02
2024-12-25 18:11:56,790,770,911,827,763,-2.46,-9.46,1.86,-0.03,0.02,-0.01
2024-12-25 18:11:56,789,771,910,826,763,-2.35,-9.42,1.89,-0.02,0.02,-0.02
2024-12-25 18:11:56,790,772,911,826,762,-2.38,-9.51,1.94,-0.04,0.01,-0.02
2024-12-25 18:11:57,787,771,909,826,763,-2.38,-9.46,1.90,-0.02,0.01,-0.04
2024-12-25 18:11:57,787,772,911,826,762,-2.42,-9.49,1.98,-0.04,0.03,-0.02
2024-12-25 18:11:57,789,771,909,826,763,-2.44,-9.46,1.96,-0.02,0.01,-0.01
2024-12-25 18:11:57,789,770,908,826,762,-2.28,-9.45,2.07,-0.03,0.01,-0.03
2024-12-25 18:11:57,787,771,911,826,762,-2.42,-9.51,2.06,-0.00,-0.01,-0.03
2024-12-25 18:11:58,790,771,911,825,762,-2.33,-9.51,1.98,-0.07,0.00,-0.03
2024-12-25 18:11:58,789,770,910,825,763,-2.25,-9.46,1.99,-0.04,0.01,-0.04
2024-12-25 18:11:58,789,770,910,826,763,-2.21,-9.57,1.98,-0.03,0.05,-0.00
2024-12-25 18:11:58,789,769,911,827,764,-2.21,-9.52,1.89,-0.04,-0.04,0.05
2024-12-25 18:11:58,789,772,911,827,762,-2.41,-9.44,2.09,0.02,-0.04,0.08
2024-12-25 18:11:59,787,770,908,826,762,-2.59,-9.40,2.37,-0.02,-0.05,0.02
2024-12-25 18:11:59,787,771,913,825,762,-2.58,-9.33,2.17,-0.05,0.04,-0.03
2024-12-25 18:11:59,791,771,912,825,762,-2.21,-9.25,2.15,-0.01,0.02,-0.05
2024-12-25 18:11:59,786,770,909,826,762,-2.43,-9.60,2.20,-0.03,-0.01,0.03
2024-12-25 18:11:59,786,771,910,827,762,-2.38,-9.41,2.07,-0.00,0.06,-0.04
2024-12-25 18:12:00,785,771,908,826,763,-2.49,-9.32,1.88,-0.04,0.06,-0.04
2024-12-25 18:12:00,784,771,911,827,762,-2.35,-9.48,2.10,-0.08,0.07,-0.04
2024-12-25 18:12:00,788,770,909,826,764,-2.56,-9.33,2.31,-0.00,0.06,-0.03
2024-12-25 18:12:00,787,771,912,825,762,-2.42,-9.48,2.18,0.03,0.01,-0.04
2024-12-25 18:12:00,785,771,910,826,762,-2.33,-9.38,2.42,-0.05,-0.01,-0.05
2024-12-25 18:12:00,788,772,911,825,761,-1.98,-9.49,2.21,-0.01,-0.05,-0.07
2024-12-25 18:12:01,785,771,910,825,764,-2.58,-9.38,2.31,-0.01,0.11,0.02
2024-12-25 18:12:01,788,772,911,826,763,-2.11,-9.41,2.23,-0.00,-0.03,-0.05
2024-12-25 18:12:01,787,771,910,825,762,-2.28,-9.31,2.56,-0.05,-0.04,-0.03
2024-12-25 18:12:01,788,770,910,825,763,-2.04,-9.50,2.82,0.05,0.07,-0.05
2024-12-25 18:12:01,786,772,910,825,762,-2.16,-9.50,2.66,-0.05,0.03,0.02
2024-12-25 18:12:02,786,772,912,825,762,-2.18,-9.29,2.72,-0.07,0.05,-0.00
2024-12-25 18:12:02,786,771,910,825,762,-2.36,-9.36,3.03,0.01,0.09,-0.01
2024-12-25 18:12:02,786,772,908,825,763,-2.27,-9.29,2.96,-0.03,0.02,-0.09
2024-12-25 18:12:02,786,771,911,826,763,-2.15,-9.28,2.85,-0.11,-0.02,-0.04
2024-12-25 18:12:02,788,773,909,825,763,-1.99,-9.37,2.73,-0.04,0.02,-0.01
2024-12-25 18:12:03,787,771,910,825,763,-1.98,-9.45,2.71,-0.06,0.02,-0.01
2024-12-25 18:12:03,786,774,909,827,762,-2.04,-9.35,2.72,-0.01,0.01,-0.04
2024-12-25 18:12:03,789,770,907,826,761,-2.01,-9.45,2.75,-0.02,0.04,0.00
2024-12-25 18:12:03,787,772,909,827,764,-2.00,-9.42,2.79,-0.04,0.03,-0.01
2024-12-25 18:12:03,787,773,909,826,762,-1.96,-9.43,2.84,-0.03,0.04,-0.02
2024-12-25 18:12:03,786,773,910,826,763,-2.04,-9.39,2.78,-0.05,0.02,-0.00
2024-12-25 18:12:04,785,772,910,826,763,-1.94,-9.41,2.77,-0.03,0.02,-0.02
2024-12-25 18:12:04,787,773,908,827,764,-2.05,-9.45,2.79,-0.04,0.02,-0.02
2024-12-25 18:12:04,789,774,910,825,764,-1.98,-9.39,2.81,-0.04,0.01,-0.02
2024-12-25 18:12:04,786,773,909,827,762,-1.97,-9.43,2.83,-0.04,0.02,-0.02
2024-12-25 18:12:04,788,773,911,826,763,-2.02,-9.43,2.79,-0.05,0.01,-0.02
2024-12-25 18:12:05,787,772,911,825,764,-2.07,-9.42,2.83,-0.02,0.03,-0.02
2024-12-25 18:12:05,786,774,911,826,762,-1.90,-9.39,2.68,-0.11,0.01,-0.05
2024-12-25 18:12:05,789,774,910,825,762,-2.07,-9.43,2.70,-0.05,-0.02,0.00
2024-12-25 18:12:05,786,773,909,825,762,-2.01,-9.44,2.88,-0.02,-0.00,-0.00
2024-12-25 18:12:05,786,773,910,827,763,-2.04,-9.44,2.88,-0.04,0.02,-0.02
2024-12-25 18:12:06,785,772,911,824,762,-2.01,-9.36,2.83,-0.02,0.01,-0.01
2024-12-25 18:12:06,785,772,909,825,763,-1.88,-9.50,2.90,0.01,0.01,-0.02
2024-12-25 18:12:06,787,774,910,827,763,-2.09,-9.39,2.80,-0.08,0.04,-0.02
2024-12-25 18:12:06,785,773,908,826,764,-1.92,-9.50,2.90,-0.02,0.04,-0.00
2024-12-25 18:12:06,787,773,910,828,761,-1.89,-9.29,2.85,-0.04,0.01,0.00
2024-12-25 18:12:06,785,776,910,826,763,-1.89,-9.44,2.91,-0.06,-0.04,-0.05
2024-12-25 18:12:07,786,774,910,824,763,-2.04,-9.42,2.92,-0.19,0.06,-0.06
2024-12-25 18:12:07,787,774,910,824,762,-2.05,-9.26,2.78,0.03,0.08,0.02
2024-12-25 18:12:07,787,773,909,826,762,-1.90,-9.54,2.48,-0.03,0.02,-0.05
2024-12-25 18:12:07,788,774,910,826,762,-1.68,-9.52,2.62,-0.07,0.04,-0.05
2024-12-25 18:12:07,786,772,910,827,762,-1.97,-9.61,2.69,-0.03,0.04,-0.02
2024-12-25 18:12:08,788,774,910,826,762,-1.71,-9.45,2.67,0.01,-0.02,0.05
2024-12-25 18:12:08,786,773,909,824,763,-1.71,-9.26,2.85,-0.02,-0.04,-0.04
2024-12-25 18:12:08,786,773,908,826,762,-1.94,-9.61,3.00,-0.01,0.02,0.01
2024-12-25 18:12:08,787,772,911,824,763,-1.76,-9.31,2.79,-0.03,0.04,-0.04
2024-12-25 18:12:08,788,774,911,825,763,-1.77,-9.51,2.94,-0.04,0.08,-0.04
2024-12-25 18:12:09,785,772,909,825,760,-1.73,-9.46,2.91,-0.04,0.08,-0.02
2024-12-25 18:12:09,787,773,908,824,763,-1.64,-9.47,2.64,-0.03,0.06,0.00
2024-12-25 18:12:09,788,774,909,824,761,-1.72,-9.49,2.91,0.04,0.01,0.01
2024-12-25 18:12:09,786,773,908,823,761,-1.80,-9.39,2.98,-0.03,-0.04,-0.01
2024-12-25 18:12:09,787,773,912,826,762,-1.71,-9.37,3.02,0.04,-0.01,-0.05
2024-12-25 18:12:09,787,772,912,825,762,-1.65,-9.40,3.00,-0.01,0.04,-0.04
2024-12-25 18:12:10,786,775,909,827,761,-1.62,-9.44,3.12,-0.05,0.03,-0.03
2024-12-25 18:12:10,788,776,910,825,763,-1.60,-9.42,3.07,-0.07,0.02,-0.02
2024-12-25 18:12:10,785,775,909,825,762,-1.76,-9.46,2.94,-0.06,0.03,-0.00
2024-12-25 18:12:10,788,775,911,826,762,-1.74,-9.43,2.94,-0.03,0.04,-0.01
2024-12-25 18:12:10,788,776,907,826,762,-1.69,-9.52,2.95,-0.05,0.03,-0.01
2024-12-25 18:12:11,787,776,910,827,762,-1.66,-9.44,2.89,-0.05,0.04,-0.01
2024-12-25 18:12:11,787,774,910,824,762,-1.65,-9.40,2.97,-0.06,0.03,-0.01
2024-12-25 18:12:11,787,774,910,825,762,-1.60,-9.31,2.97,-0.01,0.01,-0.05
2024-12-25 18:12:11,787,773,908,825,760,-1.67,-9.56,2.87,-0.05,-0.02,0.00
2024-12-25 18:12:11,786,773,910,825,761,-1.91,-9.43,2.70,-0.24,0.04,0.00
2024-12-25 18:12:11,787,774,910,824,761,-1.58,-9.66,3.15,-0.10,0.14,0.02
2024-12-25 18:12:12,786,775,910,826,763,-1.46,-9.45,2.54,-0.09,0.06,-0.04
2024-12-25 18:12:12,785,773,907,824,763,-1.85,-9.52,1.44,-0.05,0.00,0.06
2024-12-25 18:12:12,787,774,908,824,761,-1.88,-9.55,2.54,0.00,0.05,0.05
2024-12-25 18:12:12,787,772,910,825,760,-2.06,-9.47,2.17,-0.06,0.01,-0.04
2024-12-25 18:12:12,786,768,913,823,760,-2.11,-9.55,2.34,-0.02,0.08,0.04
2024-12-25 18:12:13,788,770,911,823,762,-2.16,-9.37,2.35,-0.08,0.04,0.04
2024-12-25 18:12:13,787,770,909,825,761,-2.13,-9.38,2.33,-0.04,0.01,-0.03
2024-12-25 18:12:13,786,769,910,822,761,-2.18,-9.49,2.29,0.03,0.06,-0.00
2024-12-25 18:12:13,787,768,910,824,760,-2.01,-9.45,2.32,-0.12,0.02,-0.06
2024-12-25 18:12:13,789,768,910,823,761,-2.07,-9.57,2.12,-0.06,0.06,-0.02
2024-12-25 18:12:14,784,767,907,825,759,-1.89,-9.58,1.86,-0.06,-0.00,-0.06
2024-12-25 18:12:14,788,769,910,823,762,-2.01,-9.55,2.19,-0.04,0.01,-0.03
2024-12-25 18:12:14,786,768,909,824,760,-1.88,-9.53,2.06,-0.01,0.03,-0.02
2024-12-25 18:12:14,785,768,910,825,761,-1.92,-9.62,2.09,-0.07,0.06,0.00
2024-12-25 18:12:14,787,770,910,823,761,-1.98,-9.48,2.10,-0.05,0.11,0.03
2024-12-25 18:12:14,783,769,909,825,763,-1.77,-10.15,2.35,0.12,0.09,0.06
2024-12-25 18:12:15,785,769,911,824,759,-1.86,-9.23,1.82,-0.49,-0.24,-0.15
2024-12-25 18:12:15,786,769,910,824,762,-1.68,-9.80,1.61,0.30,0.06,-0.30
2024-12-25 18:12:15,786,767,908,823,760,-1.63,-9.91,2.28,0.12,0.06,0.02
2024-12-25 18:12:15,785,770,908,823,761,-1.28,-9.56,2.36,0.06,-0.02,-0.05
2024-12-25 18:12:15,786,770,911,823,762,-1.49,-9.61,2.95,0.10,0.05,0.19
2024-12-25 18:12:16,785,769,908,824,761,-1.54,-9.43,2.23,0.02,0.03,-0.09
2024-12-25 18:12:16,788,769,909,824,762,-1.88,-9.55,2.49,0.00,-0.02,-0.00
2024-12-25 18:12:16,788,768,910,824,761,-1.64,-9.56,3.07,0.01,0.02,0.01
2024-12-25 18:12:16,786,769,908,824,760,-1.73,-9.38,2.99,-0.05,0.03,0.01
2024-12-25 18:12:16,787,769,911,825,760,-1.63,-9.62,2.88,0.10,0.01,-0.05
2024-12-25 18:12:17,785,770,910,823,761,-1.76,-9.46,2.97,0.02,0.01,-0.09
2024-12-25 18:12:17,786,770,910,825,759,-1.53,-9.43,3.09,-0.01,0.05,-0.04
2024-12-25 18:12:17,786,770,909,823,761,-1.68,-9.40,2.96,-0.00,0.01,0.00
2024-12-25 18:12:17,786,769,911,824,760,-1.54,-9.54,3.07,-0.03,-0.04,-0.05
2024-12-25 18:12:17,786,770,909,823,761,-1.55,-9.43,3.24,-0.10,0.08,-0.00
2024-12-25 18:12:17,788,771,911,825,761,-1.49,-9.44,3.09,-0.04,0.06,-0.02
2024-12-25 18:12:18,787,771,910,825,761,-1.50,-9.48,3.21,-0.03,0.02,-0.03
2024-12-25 18:12:18,786,769,911,824,761,-1.46,-9.46,3.15,-0.01,0.02,-0.04
2024-12-25 18:12:18,786,769,911,824,762,-1.54,-9.45,3.18,-0.05,0.01,-0.00
2024-12-25 18:12:18,786,770,910,823,761,-1.57,-9.47,3.17,-0.02,0.02,-0.01
2024-12-25 18:12:18,787,773,910,824,762,-1.52,-9.44,3.23,-0.09,0.03,-0.01
2024-12-25 18:12:19,786,772,909,822,762,-1.51,-9.39,3.06,-0.07,0.04,0.00
2024-12-25 18:12:19,787,770,908,824,761,-1.55,-9.45,3.15,-0.04,0.02,0.01
2024-12-25 18:12:19,788,772,910,823,762,-1.48,-9.38,3.22,-0.02,0.02,-0.01
2024-12-25 18:12:19,785,771,907,824,760,-1.36,-9.50,3.36,-0.03,-0.05,-0.03
2024-12-25 18:12:19,787,772,911,826,762,-1.35,-9.33,3.11,-0.06,0.04,-0.11
2024-12-25 18:12:20,789,771,912,823,762,-1.52,-9.58,3.36,-0.00,0.06,0.00
2024-12-25 18:12:20,788,771,908,824,760,-1.34,-9.49,3.12,-0.06,0.07,-0.01
2024-12-25 18:12:20,787,771,909,825,761,-1.41,-9.54,3.13,-0.01,0.04,-0.02
2024-12-25 18:12:20,785,771,907,824,761,-1.33,-9.40,3.19,-0.06,0.05,-0.03
2024-12-25 18:12:20,786,772,909,823,762,-1.24,-9.59,3.15,-0.00,0.06,-0.03
2024-12-25 18:12:20,788,772,911,824,762,-1.24,-9.53,3.11,-0.03,0.01,-0.03
2024-12-25 18:12:21,786,770,909,823,762,-1.33,-9.50,3.16,-0.06,0.05,-0.05
2024-12-25 18:12:21,787,771,909,824,761,-1.42,-9.42,3.12,-0.08,0.04,-0.02
2024-12-25 18:12:21,785,770,909,825,762,-1.20,-9.70,3.03,-0.01,0.00,0.04
2024-12-25 18:12:21,786,772,909,824,761,-0.96,-9.51,3.25,-0.02,-0.00,0.04
2024-12-25 18:12:21,787,772,910,823,761,-0.96,-9.55,3.12,0.03,0.01,-0.04
2024-12-25 18:12:22,786,771,908,823,760,-1.50,-9.53,2.85,-0.05,0.06,-0.08
2024-12-25 18:12:22,787,772,910,823,761,-1.45,-9.53,3.16,-0.08,0.04,-0.02
2024-12-25 18:12:22,787,773,908,821,760,-1.08,-9.54,3.14,-0.00,-0.02,-0.01
2024-12-25 18:12:22,787,771,909,826,761,-1.33,-9.66,3.35,-0.03,-0.06,0.11
2024-12-25 18:12:22,786,773,911,825,762,-1.46,-9.43,2.98,-0.06,0.04,0.04
2024-12-25 18:12:23,786,771,910,824,760,-1.40,-9.41,3.06,-0.06,0.06,0.02
2024-12-25 18:12:23,788,774,907,824,760,-1.62,-9.50,3.45,-0.18,0.21,0.11
2024-12-25 18:12:23,788,768,909,823,763,-2.16,-9.63,2.28,-0.55,0.37,0.18
2024-12-25 18:12:23,784,769,907,822,759,-2.53,-9.30,1.44,-0.08,0.10,0.18
2024-12-25 18:12:23,786,769,907,824,760,-2.58,-9.27,1.36,-0.03,0.10,0.14
2024-12-25 18:12:23,787,768,909,823,761,-2.63,-9.62,1.85,0.04,-0.03,-0.06
2024-12-25 18:12:24,786,769,907,822,762,-2.70,-9.19,1.57,0.02,-0.10,-0.16
2024-12-25 18:12:24,786,768,909,823,760,-2.42,-9.56,2.31,0.06,0.00,-0.10
2024-12-25 18:12:24,787,771,909,824,761,-2.03,-9.41,2.19,0.01,0.03,-0.02
2024-12-25 18:12:24,784,770,908,823,761,-2.06,-9.45,2.38,0.00,0.01,-0.07
2024-12-25 18:12:24,785,773,907,824,761,-2.21,-9.43,2.52,0.07,0.01,-0.03
2024-12-25 18:12:25,786,773,908,823,762,-2.07,-9.54,2.73,-0.01,0.04,-0.00
2024-12-25 18:12:25,786,770,907,823,761,-2.14,-9.50,2.19,-0.10,0.03,-0.07
2024-12-25 18:12:25,787,772,909,822,761,-1.80,-9.56,2.56,-0.16,-0.03,-0.15
2024-12-25 18:12:25,789,772,908,823,760,-1.38,-9.74,1.66,0.10,-0.07,-0.14
2024-12-25 18:12:25,785,772,909,824,760,-1.82,-9.67,2.55,0.16,-0.05,0.16
2024-12-25 18:12:26,790,773,908,822,763,-2.37,-9.29,2.38,-0.13,0.08,0.32
2024-12-25 18:12:26,788,770,908,822,760,-2.06,-9.01,3.04,0.11,-0.04,-0.16
2024-12-25 18:12:26,786,773,907,823,761,-2.55,-9.18,3.41,-0.10,0.20,0.13
2024-12-25 18:12:26,790,773,911,823,762,-2.28,-8.83,3.05,-0.04,-0.11,0.06
2024-12-25 18:12:26,788,772,907,822,760,-2.35,-9.03,3.70,0.15,-0.06,-0.13
2024-12-25 18:12:26,788,772,910,825,760,-2.48,-9.29,3.66,-0.06,0.18,0.03
2024-12-25 18:12:27,789,772,908,823,761,-2.43,-9.29,3.96,0.09,0.09,-0.10
2024-12-25 18:12:27,789,773,905,822,761,-2.31,-9.00,3.56,-0.18,0.02,-0.13
2024-12-25 18:12:27,786,772,908,823,760,-2.20,-9.07,3.25,-0.15,-0.12,-0.09
2024-12-25 18:12:27,788,772,908,823,761,-2.04,-9.45,2.95,-0.31,-0.03,-0.03
2024-12-25 18:12:27,790,772,910,823,762,-1.83,-9.39,2.53,-0.29,-0.08,-0.04
2024-12-25 18:12:28,788,772,908,823,761,-1.53,-9.66,2.51,-0.15,0.07,0.09
2024-12-25 18:12:28,786,772,908,823,762,-2.08,-9.35,1.95,-0.13,-0.06,0.06
2024-12-25 18:12:28,788,775,908,823,761,-2.54,-9.39,1.63,0.07,0.09,-0.09
2024-12-25 18:12:28,788,774,909,823,761,-1.91,-9.55,2.38,0.11,0.19,-0.20
2024-12-25 18:12:28,787,773,909,824,760,-1.74,-9.80,2.34,0.08,0.17,-0.12
2024-12-25 18:12:29,788,776,909,824,763,-1.58,-9.43,2.42,-0.04,0.10,-0.06
2024-12-25 18:12:29,788,774,909,821,760,-1.39,-9.58,3.02,0.03,0.23,-0.22
2024-12-25 18:12:29,791,774,906,824,762,-1.05,-9.84,2.49,-0.09,0.08,0.00
2024-12-25 18:12:29,790,775,910,823,763,-1.30,-9.60,2.71,0.03,0.06,0.03
2024-12-25 18:12:29,790,776,909,824,761,-1.79,-9.87,2.30,-0.11,0.20,-0.17
2024-12-25 18:12:29,789,775,909,823,762,-0.66,-9.47,2.29,-0.03,0.09,0.04
2024-12-25 18:12:30,790,777,908,823,764,-1.18,-9.83,2.35,-0.09,0.07,-0.16
2024-12-25 18:12:30,790,777,908,822,762,-1.09,-9.72,2.27,0.04,-0.01,0.03
2024-12-25 18:12:30,789,782,906,822,761,-1.05,-9.68,2.26,-0.04,0.06,0.01
2024-12-25 18:12:30,788,781,908,824,763,-1.15,-9.71,2.39,-0.03,0.03,0.02
2024-12-25 18:12:30,790,781,907,822,762,-1.17,-9.79,2.39,0.03,0.04,-0.03
2024-12-25 18:12:31,791,782,910,822,763,-1.07,-9.61,2.42,-0.02,0.03,0.02
2024-12-25 18:12:31,790,781,909,824,762,-1.08,-9.62,2.49,-0.03,-0.01,-0.05
2024-12-25 18:12:31,790,781,908,823,763,-1.14,-9.76,2.58,-0.00,0.01,0.02
2024-12-25 18:12:31,788,780,909,823,762,-1.24,-9.66,2.55,-0.06,-0.09,0.03
2024-12-25 18:12:31,791,780,909,824,763,-1.28,-9.47,2.66,-0.04,-0.04,-0.03
2024-12-25 18:12:31,788,784,910,824,763,-1.28,-9.75,2.53,-0.03,0.00,0.02
2024-12-25 18:12:32,791,786,909,823,762,-1.40,-9.56,2.62,-0.06,0.01,-0.01
2024-12-25 18:12:32,790,783,906,823,762,-1.34,-9.63,2.56,-0.06,0.04,-0.01
2024-12-25 18:12:32,789,782,909,823,762,-1.22,-9.52,2.65,-0.13,0.10,-0.01
2024-12-25 18:12:32,790,779,910,821,763,-1.46,-9.74,1.91,-0.28,0.14,0.07
2024-12-25 18:12:32,789,770,907,821,760,-1.64,-9.79,1.36,-0.25,0.23,0.09
2024-12-25 18:12:33,792,769,907,821,760,-1.72,-9.52,1.07,-0.04,0.11,0.05
2024-12-25 18:12:33,789,768,910,823,761,-1.80,-9.65,1.30,0.10,0.12,-0.00
2024-12-25 18:12:33,788,770,908,820,760,-1.90,-9.71,1.33,-0.08,0.02,-0.00
2024-12-25 18:12:33,789,768,910,821,760,-1.85,-9.71,1.25,-0.03,-0.03,-0.05
2024-12-25 18:12:33,790,767,909,821,760,-1.76,-9.70,1.31,-0.04,0.00,-0.05
2024-12-25 18:12:34,789,770,905,821,760,-1.69,-9.80,1.32,-0.03,-0.01,-0.01
2024-12-25 18:12:34,790,770,908,821,758,-1.58,-9.65,1.42,-0.04,-0.01,-0.00
2024-12-25 18:12:34,792,770,907,821,761,-1.64,-9.76,1.41,-0.01,-0.00,-0.02
2024-12-25 18:12:34,791,771,910,822,761,-1.71,-9.68,1.42,-0.05,0.01,-0.05
2024-12-25 18:12:34,791,775,910,822,761,-1.71,-9.71,1.54,-0.03,0.00,-0.02
2024-12-25 18:12:34,791,776,910,824,762,-1.80,-9.75,1.45,-0.03,0.02,-0.01
2024-12-25 18:12:35,788,773,909,823,762,-1.75,-9.68,1.47,-0.05,0.04,0.01
2024-12-25 18:12:35,791,775,909,822,761,-1.75,-9.70,1.37,-0.05,0.02,0.00
2024-12-25 18:12:35,791,775,910,822,761,-1.64,-9.63,1.57,-0.01,0.02,0.00
2024-12-25 18:12:35,789,774,909,822,760,-1.73,-9.63,1.50,0.01,0.02,-0.01
2024-12-25 18:12:35,790,777,909,821,762,-1.66,-9.64,1.74,0.17,-0.00,-0.06
2024-12-25 18:12:36,788,781,907,824,761,-1.64,-9.51,1.98,0.06,-0.03,-0.07
2024-12-25 18:12:36,789,777,907,821,760,-1.50,-9.65,1.46,0.12,-0.15,-0.04
2024-12-25 18:12:36,792,778,908,822,762,-0.85,-9.72,2.80,0.26,-0.12,0.04
2024-12-25 18:12:36,792,777,906,822,761,-1.50,-9.40,3.56,0.26,-0.08,-0.03
2024-12-25 18:12:36,791,777,909,821,761,-1.23,-8.80,4.24,0.39,0.18,-0.08
2024-12-25 18:12:37,792,778,908,822,762,-1.08,-9.08,4.88,0.39,0.23,-0.03
2024-12-25 18:12:37,793,778,907,823,761,-1.73,-8.63,5.05,0.34,0.23,-0.04
2024-12-25 18:12:37,793,779,909,822,761,-1.54,-8.37,6.00,0.20,0.21,-0.07
2024-12-25 18:12:37,792,778,907,821,762,-1.39,-8.20,6.22,0.08,0.03,-0.09
2024-12-25 18:12:37,794,779,909,821,761,-1.44,-8.33,5.93,-0.04,0.00,-0.10
2024-12-25 18:12:37,789,778,907,821,761,-1.28,-8.31,5.68,-0.12,-0.02,-0.10
2024-12-25 18:12:38,792,778,909,823,761,-1.07,-8.68,5.81,-0.11,-0.10,-0.07
2024-12-25 18:12:38,791,782,906,823,762,-0.70,-8.16,5.85,-0.47,-0.38,-0.18
2024-12-25 18:12:38,792,783,908,822,761,-0.09,-8.89,5.46,-0.20,-0.23,-0.01
2024-12-25 18:12:38,792,782,910,822,761,-1.27,-9.55,4.03,-0.93,0.65,0.28
2024-12-25 18:12:38,792,780,909,821,761,-1.27,-9.03,2.98,-0.21,0.12,0.09
2024-12-25 18:12:39,791,780,908,821,761,-0.75,-9.27,3.34,0.33,0.01,-0.22
2024-12-25 18:12:39,792,781,909,823,760,-1.42,-10.79,3.14,-0.03,0.29,-0.02
2024-12-25 18:12:39,794,781,909,820,762,-0.92,-8.60,3.74,-0.31,-0.15,-0.07
2024-12-25 18:12:39,790,782,907,822,761,-1.23,-9.24,2.81,0.06,-0.29,-0.01
2024-12-25 18:12:39,792,782,911,823,761,-1.39,-10.35,3.26,0.27,-0.04,0.39
2024-12-25 18:12:40,792,779,908,822,761,-1.52,-8.82,4.45,0.25,0.04,0.05
2024-12-25 18:12:40,792,780,908,821,760,-0.11,-9.36,3.27,-0.01,-0.07,-0.10
2024-12-25 18:12:40,791,781,909,821,762,-1.26,-9.36,4.30,-0.11,-0.07,-0.18
2024-12-25 18:12:40,791,780,909,821,760,-1.07,-9.47,3.73,-0.37,0.16,-0.05
2024-12-25 18:12:40,792,780,910,822,760,-1.72,-9.47,3.56,-0.32,0.12,0.28
2024-12-25 18:12:40,791,777,908,819,760,-1.64,-8.72,3.75,0.13,0.13,0.13
2024-12-25 18:12:41,790,776,905,819,760,-2.14,-10.29,3.17,0.08,-0.24,0.10
2024-12-25 18:12:41,791,776,905,820,761,-2.19,-8.48,3.84,-0.23,-0.02,-0.06
2024-12-25 18:12:41,791,776,904,819,760,-2.09,-9.44,3.14,0.13,0.18,0.00
2024-12-25 18:12:41,791,777,905,820,760,-1.99,-9.41,3.28,-0.19,0.09,0.02
2024-12-25 18:12:41,792,777,904,820,759,-2.26,-9.36,3.05,-0.22,0.26,0.16
2024-12-25 18:12:42,795,774,904,817,758,-2.57,-9.39,2.77,-0.20,0.23,0.07
2024-12-25 18:12:42,792,774,904,819,759,-2.53,-9.45,2.16,-0.12,0.17,-0.06
2024-12-25 18:12:42,795,774,904,818,759,-2.56,-9.40,2.18,-0.14,0.01,0.02
2024-12-25 18:12:42,792,775,905,818,759,-2.72,-9.33,2.42,-0.08,0.12,0.03
2024-12-25 18:12:42,795,774,908,821,759,-2.12,-9.11,2.07,-0.27,-0.17,-0.15
2024-12-25 18:12:43,795,774,909,824,761,-2.53,-9.78,1.35,-0.14,0.04,-0.04
2024-12-25 18:12:43,796,775,908,823,761,-2.58,-9.05,1.73,-0.02,0.05,-0.10
2024-12-25 18:12:43,796,775,910,823,760,-2.35,-9.60,1.59,0.15,-0.04,-0.09
2024-12-25 18:12:43,794,775,907,822,760,-2.20,-9.57,2.26,-0.01,0.11,-0.08
2024-12-25 18:12:43,796,775,908,822,762,-1.71,-9.62,2.00,0.09,0.05,-0.06
2024-12-25 18:12:43,793,777,907,823,761,-2.12,-9.47,2.26,0.08,0.01,0.01
2024-12-25 18:12:44,794,777,909,822,760,-2.25,-9.38,2.70,-0.01,0.01,0.03
2024-12-25 18:12:44,793,778,909,822,761,-2.07,-9.46,2.51,0.04,0.00,-0.06
2024-12-25 18:12:44,793,778,908,822,762,-1.98,-9.63,2.68,-0.03,0.06,0.01
2024-12-25 18:12:44,794,778,908,822,763,-2.10,-9.11,2.94,0.09,0.08,-0.07
2024-12-25 18:12:44,793,780,906,823,761,-1.93,-9.48,2.98,0.01,0.04,-0.01
2024-12-25 18:12:45,794,781,909,824,762,-1.50,-9.51,2.70,-0.05,-0.05,0.01
2024-12-25 18:12:45,792,782,909,823,761,-1.90,-9.41,2.83,-0.22,0.02,0.05
2024-12-25 18:12:45,792,779,907,822,761,-1.81,-9.37,2.50,-0.03,-0.08,-0.04
2024-12-25 18:12:45,793,778,909,824,761,-2.49,-9.31,2.66,0.02,-0.06,0.00
2024-12-25 18:12:45,793,778,908,822,760,-2.54,-9.61,3.06,-0.06,0.05,0.02
2024-12-25 18:12:46,796,779,908,821,760,-1.92,-9.01,2.78,-0.01,-0.01,-0.04
2024-12-25 18:12:46,793,780,909,824,762,-1.99,-9.50,3.00,0.15,-0.12,-0.01
2024-12-25 18:12:46,794,780,907,822,761,-1.97,-9.27,3.45,0.02,-0.14,0.00
2024-12-25 18:12:46,793,781,909,823,763,-1.93,-9.12,4.08,0.15,-0.15,0.03
2024-12-25 18:12:46,794,781,908,822,762,-1.62,-9.62,3.37,0.05,-0.10,0.03
2024-12-25 18:12:46,790,781,907,822,762,-2.45,-8.29,4.38,-0.15,-0.26,-0.11
2024-12-25 18:12:47,793,781,909,825,762,-1.94,-9.51,4.63,0.27,0.10,-0.09
2024-12-25 18:12:47,792,781,907,822,762,-1.52,-8.62,4.39,0.07,0.08,-0.22
2024-12-25 18:12:47,793,782,909,823,761,-1.29,-9.37,4.61,-0.01,-0.09,-0.14
2024-12-25 18:12:47,794,785,908,821,760,-0.96,-8.83,5.01,0.05,-0.00,-0.10
2024-12-25 18:12:47,794,783,908,822,761,-0.31,-9.42,5.58,-0.65,-0.06,0.25
2024-12-25 18:12:48,792,783,909,822,764,-0.83,-8.85,4.05,-0.07,-0.03,-0.08
2024-12-25 18:12:48,793,783,905,821,762,-0.85,-9.08,4.94,0.18,0.08,-0.02
2024-12-25 18:12:48,792,783,909,824,763,-0.57,-9.30,4.50,-0.04,0.03,-0.00
2024-12-25 18:12:48,792,783,907,823,762,-0.89,-9.17,4.43,-0.00,0.03,-0.04
2024-12-25 18:12:48,793,784,909,822,761,-0.91,-9.11,4.56,0.02,0.04,0.05
2024-12-25 18:12:49,792,783,908,822,761,-1.13,-9.03,4.78,-0.01,0.07,-0.03
2024-12-25 18:12:49,794,784,907,823,761,-0.91,-9.08,5.04,-0.19,0.10,-0.08
2024-12-25 18:12:49,794,782,908,824,763,-1.00,-8.89,4.20,-0.17,0.08,0.07
2024-12-25 18:12:49,792,784,908,822,761,-0.68,-9.26,4.59,-0.02,0.04,-0.03
2024-12-25 18:12:49,793,783,907,820,761,-1.05,-9.28,4.77,-0.02,0.08,0.04
2024-12-25 18:12:49,792,784,907,822,762,-1.31,-9.05,4.47,-0.13,0.10,-0.05
2024-12-25 18:12:50,793,783,907,823,761,-0.98,-9.04,4.09,-0.11,0.12,-0.13
2024-12-25 18:12:50,792,783,907,821,762,-0.63,-9.08,4.35,-0.11,0.16,-0.14
2024-12-25 18:12:50,792,783,910,822,761,-0.86,-9.50,4.00,-0.22,0.07,0.01
2024-12-25 18:12:50,792,781,907,822,761,-0.88,-9.81,3.57,-0.07,0.23,0.24
2024-12-25 18:12:50,787,774,907,821,759,-1.44,-8.90,4.05,0.16,0.08,0.27
2024-12-25 18:12:51,787,774,903,821,758,-2.12,-8.95,3.63,-0.41,-0.02,-0.06
2024-12-25 18:12:51,784,772,906,822,758,-1.81,-8.96,3.53,-0.14,0.07,-0.07
2024-12-25 18:12:51,780,771,905,819,759,-2.09,-9.38,3.04,-0.14,-0.05,0.08
2024-12-25 18:12:51,782,772,906,820,759,-1.93,-9.34,2.88,-0.29,-0.10,0.01
2024-12-25 18:12:51,783,771,905,818,758,-1.98,-9.61,2.15,-0.19,0.02,-0.00
2024-12-25 18:12:51,782,772,903,818,758,-1.94,-9.50,2.49,-0.04,0.03,-0.08
2024-12-25 18:12:52,783,773,902,818,758,-1.87,-9.65,2.43,0.01,0.04,-0.08
2024-12-25 18:12:52,787,772,901,820,758,-1.74,-9.54,2.50,0.13,0.14,-0.08
2024-12-25 18:12:52,789,773,904,820,759,-1.60,-9.48,2.48,-0.02,0.05,-0.03
2024-12-25 18:12:52,790,776,904,819,758,-1.80,-9.68,2.76,0.03,0.07,-0.06
2024-12-25 18:12:52,789,777,905,821,761,-1.56,-9.51,2.69,0.04,0.07,-0.03
2024-12-25 18:12:53,791,776,901,819,759,-1.58,-9.48,2.71,-0.01,0.01,0.03
2024-12-25 18:12:53,791,776,904,819,759,-1.46,-9.33,3.16,0.01,-0.04,0.02
2024-12-25 18:12:53,791,778,902,818,760,-1.42,-9.41,2.93,0.01,-0.00,-0.05
2024-12-25 18:12:53,793,780,904,819,758,-1.61,-9.52,3.11,-0.08,0.01,-0.06
2024-12-25 18:12:53,791,778,902,818,759,-1.61,-9.56,3.12,-0.17,0.10,-0.04
2024-12-25 18:12:54,793,778,905,820,758,-1.57,-9.32,2.82,-0.03,0.07,-0.11
2024-12-25 18:12:54,791,778,902,820,760,-1.31,-9.76,2.95,0.05,0.06,-0.04
2024-12-25 18:12:54,790,777,905,820,758,-1.40,-9.55,2.86,-0.03,0.01,-0.02
2024-12-25 18:12:54,792,778,906,819,761,-1.17,-9.54,2.93,0.06,0.02,-0.01
2024-12-25 18:12:54,792,778,904,818,759,-1.33,-9.37,3.08,-0.03,-0.08,-0.00
2024-12-25 18:12:54,792,779,903,821,760,-1.39,-9.64,3.10,0.06,0.06,-0.03
2024-12-25 18:12:55,794,777,907,819,760,-1.13,-9.46,3.16,0.03,0.00,-0.01
2024-12-25 18:12:55,791,777,903,819,760,-1.24,-9.40,3.03,-0.02,0.02,-0.05
2024-12-25 18:12:55,792,778,904,819,760,-0.97,-9.55,3.33,0.04,-0.07,0.01
2024-12-25 18:12:55,793,780,906,822,760,-1.12,-9.72,3.43,0.05,-0.01,-0.04
2024-12-25 18:12:55,790,777,905,818,759,-1.28,-9.29,3.16,-0.09,0.01,-0.06
2024-12-25 18:12:56,792,777,904,820,759,-1.00,-9.41,3.58,0.18,0.01,-0.13
2024-12-25 18:12:56,791,777,905,818,760,-1.07,-9.32,3.52,-0.04,-0.01,-0.04
2024-12-25 18:12:56,791,776,902,819,760,-1.13,-9.36,3.89,-0.03,0.02,-0.06
2024-12-25 18:12:56,794,780,904,820,760,-0.89,-9.46,3.88,-0.00,0.08,-0.05
2024-12-25 18:12:56,789,778,902,819,761,-0.80,-9.56,3.49,-0.19,0.24,0.03
2024-12-25 18:12:57,793,781,905,821,759,-1.07,-9.55,3.38,-0.22,0.26,0.07
2024-12-25 18:12:57,792,777,906,820,760,-0.93,-9.41,2.57,0.05,0.01,-0.11
2024-12-25 18:12:57,792,776,901,819,760,-1.05,-9.61,3.29,0.00,-0.04,-0.07
2024-12-25 18:12:57,792,778,904,820,759,-0.65,-9.63,2.77,-0.01,-0.01,-0.13
2024-12-25 18:12:57,792,778,903,819,759,-0.77,-9.52,3.32,-0.01,-0.02,-0.02
2024-12-25 18:12:57,792,778,904,818,760,-0.84,-9.54,3.44,-0.01,0.03,-0.05
2024-12-25 18:12:58,792,777,903,819,758,-0.62,-9.53,3.20,0.01,-0.01,-0.07
2024-12-25 18:12:58,791,777,903,818,758,-0.57,-9.53,3.45,0.01,0.02,-0.06
2024-12-25 18:12:58,793,778,906,820,759,-0.67,-9.50,3.40,-0.02,0.02,-0.08
2024-12-25 18:12:58,794,777,903,818,759,-0.21,-9.73,3.36,-0.03,0.08,-0.24
2024-12-25 18:12:58,792,778,904,819,759,-0.04,-9.59,3.45,-0.06,-0.01,-0.05
2024-12-25 18:12:59,791,777,904,819,759,-0.48,-9.71,3.58,-0.30,0.38,0.09
2024-12-25 18:12:59,792,779,903,819,760,-0.09,-9.54,2.40,-0.20,0.04,-0.06
2024-12-25 18:12:59,795,778,905,820,758,-0.04,-9.31,3.68,0.01,-0.08,-0.17
2024-12-25 18:12:59,792,778,903,819,759,0.26,-9.79,3.69,0.09,-0.02,-0.03
2024-12-25 18:12:59,793,777,905,818,759,0.24,-9.54,3.31,-0.07,-0.00,0.02
2024-12-25 18:13:00,793,779,904,818,758,0.52,-9.66,3.47,0.05,-0.02,-0.01
2024-12-25 18:13:00,792,778,904,819,758,0.07,-9.52,3.30,-0.09,-0.02,-0.13
2024-12-25 18:13:00,792,778,904,819,759,0.41,-9.80,3.27,-0.10,0.04,0.13
2024-12-25 18:13:00,793,778,903,819,758,0.03,-9.50,3.38,-0.36,0.03,0.13
2024-12-25 18:13:00,793,779,905,819,760,-0.13,-9.53,2.34,0.09,-0.04,-0.05
2024-12-25 18:13:00,793,778,906,818,759,0.10,-9.94,3.45,0.01,-0.03,-0.08
2024-12-25 18:13:01,795,779,903,819,758,0.13,-9.77,2.99,0.00,0.03,0.02
2024-12-25 18:13:01,790,778,905,819,760,-0.40,-9.56,3.44,-0.10,0.18,0.30
2024-12-25 18:13:01,793,778,902,819,759,-0.67,-9.79,2.95,-0.15,0.22,0.14
2024-12-25 18:13:01,793,777,904,818,758,-0.89,-9.69,2.55,-0.12,0.19,0.13
2024-12-25 18:13:01,793,778,904,820,758,-0.80,-9.51,2.60,0.00,0.01,-0.03
2024-12-25 18:13:02,794,778,906,818,760,-1.66,-9.92,2.82,-0.12,0.06,0.01
2024-12-25 18:13:02,793,777,905,818,759,-0.88,-9.46,2.46,-0.17,0.06,-0.04
2024-12-25 18:13:02,796,780,905,818,758,-1.03,-9.49,2.38,0.02,0.04,-0.06
2024-12-25 18:13:02,792,777,905,819,761,-1.20,-10.09,2.37,-0.08,0.07,0.03
2024-12-25 18:13:02,792,779,905,819,758,-0.45,-9.37,2.37,-0.18,0.24,-0.25
2024-12-25 18:13:03,793,779,907,818,761,-1.20,-9.73,1.97,-0.07,-0.03,0.07
2024-12-25 18:13:03,792,777,902,819,758,-0.98,-9.84,1.90,-0.15,0.05,0.06
2024-12-25 18:13:03,793,776,904,820,759,-1.08,-9.78,1.59,-0.12,-0.02,-0.03
2024-12-25 18:13:03,793,773,904,817,757,-0.87,-9.91,1.88,-0.07,0.24,0.12
2024-12-25 18:13:03,793,772,906,815,757,-1.34,-9.49,1.36,-0.03,0.01,0.06
2024-12-25 18:13:03,793,769,903,817,758,-1.68,-9.66,1.65,-0.00,0.05,0.06
2024-12-25 18:13:04,791,769,901,817,758,-1.76,-9.86,1.56,-0.03,0.35,-0.06
2024-12-25 18:13:04,790,769,903,817,757,-1.62,-9.76,1.30,-0.15,0.13,0.21
2024-12-25 18:13:04,793,771,902,818,758,-2.85,-9.67,0.83,-0.25,0.25,0.62
2024-12-25 18:13:04,794,770,902,817,757,-2.96,-9.01,0.75,-0.36,-0.14,0.26
2024-12-25 18:13:04,792,771,903,816,759,-3.67,-9.05,-0.51,-0.25,0.03,0.03
2024-12-25 18:13:05,794,771,905,818,758,-3.43,-8.77,-0.78,-0.13,-0.03,0.00
2024-12-25 18:13:05,792,772,904,816,758,-3.79,-8.79,-0.54,0.08,-0.06,0.01
2024-12-25 18:13:05,794,771,904,819,758,-3.67,-9.06,-0.27,0.08,-0.14,-0.09
2024-12-25 18:13:05,792,771,902,817,758,-3.43,-9.00,0.48,-0.02,-0.10,-0.07
2024-12-25 18:13:05,791,771,904,817,758,-3.60,-8.88,-0.06,0.01,-0.06,-0.01
2024-12-25 18:13:06,791,772,904,816,757,-3.46,-9.15,0.55,0.17,-0.14,-0.05
2024-12-25 18:13:06,791,773,907,818,758,-3.19,-8.78,1.41,0.42,-0.32,-0.18
2024-12-25 18:13:06,791,775,904,818,758,-2.51,-9.20,1.89,0.20,-0.21,-0.43
2024-12-25 18:13:06,791,775,904,816,757,-2.24,-9.55,2.42,0.40,-0.08,-0.19
2024-12-25 18:13:06,793,774,904,817,757,-1.98,-9.47,4.04,0.49,0.05,-0.21
2024-12-25 18:13:06,792,777,903,817,757,-1.45,-9.21,4.42,0.25,0.22,-0.20
2024-12-25 18:13:07,791,779,903,816,758,-1.44,-9.19,3.87,-0.15,0.07,0.09
2024-12-25 18:13:07,793,780,905,819,759,-1.58,-9.06,3.86,-0.04,-0.03,-0.11
2024-12-25 18:13:07,788,777,903,816,757,-1.63,-9.29,4.23,0.06,0.03,-0.01
2024-12-25 18:13:07,792,779,904,817,758,-1.23,-9.17,4.24,-0.09,0.02,0.00
2024-12-25 18:13:07,792,781,905,817,757,-1.24,-9.03,4.47,-0.06,0.03,-0.05
2024-12-25 18:13:08,792,779,904,817,758,-1.18,-9.10,4.30,0.00,0.05,-0.01
2024-12-25 18:13:08,792,781,905,817,758,-1.08,-9.19,4.34,-0.03,-0.01,-0.03
2024-12-25 18:13:08,791,781,901,816,758,-1.15,-9.17,4.35,-0.03,0.04,-0.01
2024-12-25 18:13:08,790,782,902,817,759,-1.18,-9.09,4.28,-0.04,0.02,-0.03
2024-12-25 18:13:08,792,783,903,817,758,-1.12,-9.11,4.42,0.05,-0.01,-0.06
2024-12-25 18:13:09,792,780,902,818,759,-0.98,-9.12,4.43,0.05,0.01,-0.06
2024-12-25 18:13:09,793,782,904,818,759,-1.09,-9.06,4.67,-0.02,0.06,-0.08
2024-12-25 18:13:09,792,781,905,816,759,-0.85,-9.20,4.62,-0.02,0.06,-0.00
2024-12-25 18:13:09,791,781,906,817,758,-1.11,-9.04,4.53,-0.11,0.05,0.03
