Timestamp,Flex1,Flex2,Flex3,Flex4,Flex5,AccelX,AccelY,AccelZ,GyroX,GyroY,GyroZ
2024-12-25 18:28:57,786,789,803,773,771,-2.50,1.27,10.12,-0.03,-0.01,-0.02
2024-12-25 18:28:57,786,790,804,773,770,-2.68,1.26,10.05,-0.04,0.05,-0.00
2024-12-25 18:28:57,784,792,804,772,770,-2.61,1.22,10.09,-0.03,0.02,-0.02
2024-12-25 18:28:57,786,793,806,774,770,-2.68,1.04,10.48,-0.05,0.21,-0.02
2024-12-25 18:28:57,785,791,805,771,770,-3.33,1.15,9.72,-0.03,-0.08,-0.01
2024-12-25 18:28:57,786,790,804,775,770,-2.37,1.35,9.93,-0.01,0.10,-0.00
2024-12-25 18:28:57,785,790,803,774,771,-2.51,1.28,9.10,-0.03,-0.17,-0.05
2024-12-25 18:28:57,785,791,804,774,770,-3.00,1.22,9.81,-0.03,-0.03,-0.01
2024-12-25 18:28:57,786,790,804,775,770,-3.15,1.18,9.89,-0.03,0.04,-0.00
2024-12-25 18:28:57,786,789,803,774,769,-3.07,1.15,9.90,-0.04,0.04,-0.01
2024-12-25 18:28:57,787,793,804,774,769,-3.24,1.25,9.87,-0.03,0.04,-0.00
2024-12-25 18:28:57,789,791,806,774,770,-3.14,1.15,9.91,-0.03,-0.02,-0.01
2024-12-25 18:28:57,786,791,805,773,771,-3.16,1.30,9.94,-0.04,0.03,-0.01
2024-12-25 18:28:57,787,791,804,773,770,-3.21,1.19,9.88,-0.04,0.01,-0.02
2024-12-25 18:28:57,786,792,805,773,770,-3.12,1.22,9.93,-0.04,0.03,-0.02
2024-12-25 18:28:57,786,789,805,773,769,-3.23,1.25,9.85,-0.04,0.02,-0.01
2024-12-25 18:28:57,785,790,804,773,770,-3.15,1.21,9.94,-0.03,0.03,-0.01
2024-12-25 18:28:57,787,793,804,773,770,-3.18,1.22,9.89,-0.04,0.02,-0.01
2024-12-25 18:28:57,786,790,804,773,768,-3.15,1.22,9.89,-0.03,0.02,-0.01
2024-12-25 18:28:57,785,789,804,775,769,-3.19,1.23,9.84,-0.04,0.03,-0.01
2024-12-25 18:28:57,786,791,802,773,769,-3.17,1.25,9.91,-0.04,0.03,-0.01
2024-12-25 18:28:57,784,790,803,772,769,-3.14,1.22,9.88,-0.04,0.02,-0.01
2024-12-25 18:28:57,786,790,805,773,770,-3.12,1.24,9.90,-0.04,0.02,-0.01
2024-12-25 18:28:57,785,791,805,772,772,-3.17,1.23,9.89,-0.04,0.02,-0.01
2024-12-25 18:28:57,785,790,801,773,771,-3.16,1.25,9.88,-0.03,0.03,-0.02
2024-12-25 18:28:57,787,790,803,773,770,-3.14,1.21,9.90,-0.04,0.02,-0.01
2024-12-25 18:28:57,786,789,803,773,770,-3.21,1.23,9.86,-0.04,0.02,-0.00
2024-12-25 18:28:57,784,789,802,773,771,-3.08,1.27,9.90,-0.02,0.05,-0.02
2024-12-25 18:28:57,786,790,805,773,771,-3.05,1.24,9.84,-0.02,-0.00,-0.01
2024-12-25 18:28:57,785,791,804,774,770,-3.13,1.26,9.89,-0.04,0.04,-0.01
2024-12-25 18:28:57,787,788,804,772,770,-3.26,1.28,9.85,-0.04,0.08,-0.00
2024-12-25 18:28:57,787,792,804,774,770,-3.25,1.27,9.84,-0.04,0.04,-0.01
2024-12-25 18:28:57,785,790,805,775,770,-3.28,1.26,9.81,-0.04,0.04,-0.01
2024-12-25 18:28:57,786,792,802,772,769,-3.26,1.29,9.80,-0.04,0.01,-0.02
2024-12-25 18:28:57,785,790,803,773,771,-3.28,1.30,9.84,-0.04,0.02,-0.01
2024-12-25 18:28:57,789,792,804,775,771,-3.28,1.36,9.81,-0.02,-0.01,-0.02
2024-12-25 18:28:57,786,790,804,773,771,-3.29,1.36,9.81,-0.04,0.05,-0.00
2024-12-25 18:28:57,787,791,803,773,770,-3.24,1.31,9.82,-0.03,0.03,-0.00
2024-12-25 18:28:57,787,791,803,773,770,-3.22,1.26,9.93,-0.02,0.02,-0.01
2024-12-25 18:28:57,785,790,803,774,771,-3.23,1.30,9.82,-0.04,0.02,-0.01
2024-12-25 18:28:57,787,791,803,772,768,-3.28,1.32,9.87,-0.03,0.03,-0.01
2024-12-25 18:28:57,788,791,805,773,769,-3.02,1.32,9.83,0.06,-0.06,0.02
2024-12-25 18:28:57,785,790,804,774,770,-3.28,1.50,9.83,-0.04,0.04,0.00
2024-12-25 18:28:57,785,790,805,775,770,-3.05,1.45,9.89,-0.03,0.01,-0.01
2024-12-25 18:28:57,786,790,804,775,770,-3.13,1.48,9.76,-0.08,0.02,-0.02
2024-12-25 18:28:57,787,790,804,774,770,-3.11,1.48,9.87,-0.05,0.03,-0.02
2024-12-25 18:28:57,786,791,802,773,772,-3.10,1.43,9.81,-0.04,0.05,-0.01
2024-12-25 18:28:57,786,791,804,774,770,-3.20,1.39,9.85,-0.04,0.03,-0.01
2024-12-25 18:28:57,786,790,804,773,770,-3.15,1.42,9.80,-0.04,0.00,-0.01
2024-12-25 18:28:57,786,791,805,773,770,-3.22,1.45,9.83,-0.04,0.04,-0.01
2024-12-25 18:28:57,786,789,805,774,771,-3.20,1.39,9.84,-0.04,0.03,-0.01
2024-12-25 18:28:57,785,789,802,773,770,-3.22,1.39,9.84,-0.04,0.02,-0.01
2024-12-25 18:28:57,785,790,806,775,771,-3.23,1.40,9.82,-0.04,0.02,-0.01
2024-12-25 18:28:57,787,790,804,774,771,-3.23,1.43,9.84,-0.04,0.02,-0.02
2024-12-25 18:28:57,786,792,805,775,770,-3.19,1.39,9.81,-0.03,0.05,-0.01
2024-12-25 18:28:57,785,789,804,774,771,-3.19,1.40,9.84,-0.03,0.05,-0.01
2024-12-25 18:28:57,787,790,805,774,771,-3.27,1.32,9.84,-0.04,-0.03,-0.02
2024-12-25 18:28:57,786,790,805,774,771,-3.21,1.45,9.81,-0.04,0.01,-0.01
2024-12-25 18:28:57,785,790,805,773,772,-3.28,1.45,9.85,-0.03,0.04,-0.00
2024-12-25 18:28:57,788,792,804,776,772,-3.11,1.44,9.87,-0.03,0.02,-0.01
2024-12-25 18:28:57,784,789,804,775,769,-3.21,1.45,9.80,0.00,-0.03,0.01
2024-12-25 18:28:57,785,792,803,773,770,-3.10,1.57,9.90,-0.03,0.04,0.00
2024-12-25 18:28:57,786,789,806,775,771,-3.08,1.53,9.85,-0.04,0.05,-0.00
2024-12-25 18:28:57,786,791,805,775,772,-3.03,1.49,9.89,-0.04,0.01,-0.02
2024-12-25 18:28:57,785,789,805,773,771,-3.14,1.54,9.85,-0.04,0.02,-0.01
2024-12-25 18:28:57,786,789,805,774,770,-3.11,1.57,9.86,-0.03,0.03,-0.01
2024-12-25 18:28:57,785,790,806,774,771,-3.10,1.49,9.92,-0.03,0.03,-0.01
2024-12-25 18:28:57,787,789,804,773,771,-3.19,1.55,9.81,-0.04,0.02,-0.01
2024-12-25 18:28:57,786,788,806,775,772,-3.04,1.52,9.91,-0.04,0.03,-0.01
2024-12-25 18:28:57,787,789,806,774,770,-3.22,1.57,9.81,-0.04,0.02,-0.01
2024-12-25 18:28:57,786,789,804,773,771,-3.09,1.54,9.86,-0.04,0.03,-0.01
2024-12-25 18:28:57,784,788,803,775,772,-3.09,1.51,9.86,-0.04,0.02,-0.01
2024-12-25 18:28:57,787,790,804,776,772,-3.11,1.52,9.86,-0.04,0.02,-0.01
2024-12-25 18:28:57,785,790,804,773,771,-3.10,1.53,9.86,-0.04,0.03,-0.01
2024-12-25 18:28:57,786,790,804,775,770,-3.11,1.52,9.84,-0.04,0.02,-0.01
2024-12-25 18:28:57,785,790,805,774,773,-3.11,1.52,9.86,-0.04,0.02,-0.01
2024-12-25 18:28:57,786,789,803,775,770,-3.06,1.54,9.86,-0.04,0.02,-0.02
2024-12-25 18:28:57,786,791,804,773,773,-3.09,1.52,9.84,-0.04,0.02,-0.01
2024-12-25 18:28:57,785,788,806,774,771,-3.00,1.55,9.73,-0.04,0.03,-0.02
2024-12-25 18:28:57,784,789,804,774,771,-3.15,1.64,9.84,-0.10,-0.00,-0.05
2024-12-25 18:28:57,784,789,808,779,777,-2.14,-0.06,13.45,-2.84,-1.37,-1.33
2024-12-25 18:28:57,779,789,812,807,803,-2.50,-7.10,10.16,-2.32,0.93,-0.18
2024-12-25 18:28:57,777,789,825,813,816,-2.53,-5.12,3.02,-2.18,0.44,0.13
2024-12-25 18:28:57,776,792,839,821,823,-3.15,-7.37,3.18,-0.26,0.13,0.22
2024-12-25 18:28:57,774,792,837,820,817,-3.88,-7.53,4.29,0.49,-0.16,-0.14
2024-12-25 18:28:57,776,790,816,804,788,-1.76,-5.02,3.84,3.32,-0.67,1.17
2024-12-25 18:28:57,773,787,801,780,782,-2.40,1.44,14.35,0.55,-1.91,0.44
2024-12-25 18:28:57,778,788,798,776,777,1.23,1.10,8.25,1.29,0.67,-0.16
2024-12-25 18:28:57,795,781,794,769,771,-0.84,1.39,7.24,-0.26,-2.14,0.41
2024-12-25 18:28:57,794,781,798,770,771,1.82,0.98,10.77,0.01,-0.32,0.32
2024-12-25 18:28:57,792,783,797,770,771,0.08,2.09,10.30,-0.27,-0.01,0.10
2024-12-25 18:28:57,788,787,803,772,771,1.00,1.24,11.14,-0.35,-0.23,-0.21
2024-12-25 18:28:57,788,789,809,774,774,0.18,0.79,11.22,-0.15,0.80,-0.39
2024-12-25 18:28:57,789,789,807,772,773,-0.91,0.52,10.71,-0.29,0.68,-0.15
2024-12-25 18:28:57,787,788,809,773,773,-2.24,-0.28,10.41,-0.39,0.41,-0.28
2024-12-25 18:28:57,784,790,812,780,778,-2.41,-0.75,7.98,-0.53,-0.07,-0.14
2024-12-25 18:28:57,784,790,816,781,778,-4.33,-1.70,10.35,0.15,0.16,0.29
2024-12-25 18:28:57,785,790,814,782,778,-2.54,-0.86,10.01,-0.06,-0.07,0.08
2024-12-25 18:28:57,782,787,804,779,776,-2.77,-0.37,10.07,0.32,-0.11,-0.03
2024-12-25 18:28:57,783,783,788,772,774,-3.25,-0.12,10.57,0.32,0.19,-0.05
2024-12-25 18:28:57,780,781,787,770,771,-2.85,1.07,9.85,0.08,0.10,-0.00
2024-12-25 18:28:57,783,782,789,770,773,-2.82,0.64,10.92,-0.49,-0.02,-0.24
2024-12-25 18:28:57,781,783,792,771,772,-2.80,-0.90,9.15,-0.58,-0.40,-0.15
2024-12-25 18:28:57,785,789,803,774,775,-2.54,-2.19,9.96,-0.18,0.05,0.04
2024-12-25 18:28:57,786,789,807,776,775,-1.80,-1.52,10.65,0.10,0.23,-0.03
2024-12-25 18:28:57,787,789,806,776,777,-3.75,-2.42,9.18,-0.12,0.26,0.23
2024-12-25 18:28:57,788,791,809,779,777,-2.68,-1.58,10.13,0.16,-0.13,-0.17
2024-12-25 18:28:57,787,790,808,778,774,-3.16,-1.35,9.82,-0.10,-0.15,-0.05
2024-12-25 18:28:57,790,793,812,778,777,-2.58,-1.76,9.92,-0.22,-0.22,-0.05
2024-12-25 18:28:57,793,792,814,776,777,-2.46,-1.90,9.67,0.15,-0.03,0.08
2024-12-25 18:28:57,793,794,824,787,782,-3.11,-2.73,10.14,-0.38,-0.26,0.18
2024-12-25 18:28:57,789,793,820,786,779,-1.26,-1.78,9.67,0.59,0.23,-0.07
2024-12-25 18:28:57,790,791,809,780,778,-2.80,-1.07,9.88,-0.22,0.62,-0.14
2024-12-25 18:28:57,792,794,808,781,778,-3.21,0.02,11.51,0.21,0.33,0.18
2024-12-25 18:28:57,791,791,807,779,777,-3.06,-0.84,10.04,-0.06,0.10,-0.02
2024-12-25 18:28:57,790,793,809,780,780,-2.98,-0.70,10.10,-0.04,-0.00,0.02
2024-12-25 18:28:57,790,794,807,781,778,-2.88,-0.58,9.95,-0.03,-0.02,-0.01
2024-12-25 18:28:57,791,792,807,780,778,-3.13,-0.53,10.19,-0.06,0.05,-0.01
2024-12-25 18:28:57,790,791,810,781,779,-3.98,-1.55,10.09,-0.68,-0.07,-0.14
2024-12-25 18:28:57,791,791,808,782,778,-2.32,-2.20,9.13,0.00,-0.11,-0.08
2024-12-25 18:28:57,791,790,812,780,778,-3.64,-1.84,10.15,0.07,0.64,0.23
2024-12-25 18:28:57,787,791,802,778,778,-3.19,-1.81,10.03,0.37,-0.23,0.04
2024-12-25 18:28:57,779,782,786,768,777,-3.30,-0.76,7.81,-0.60,-0.35,0.12
2024-12-25 18:28:57,781,782,785,768,774,-3.65,-0.78,10.84,-0.22,-0.22,0.06
2024-12-25 18:28:57,774,780,784,767,772,-3.71,-0.98,10.03,0.93,-0.10,-0.12
2024-12-25 18:28:57,767,775,782,763,770,-3.38,0.26,10.95,0.88,-0.07,-0.20
2024-12-25 18:28:57,761,776,783,763,771,-1.05,0.78,8.74,-0.45,-0.65,-0.19
2024-12-25 18:28:57,780,788,795,768,772,-1.81,1.52,9.93,-0.33,0.12,0.02
2024-12-25 18:28:57,773,781,788,765,772,-1.02,0.45,9.55,0.21,0.55,0.14
2024-12-25 18:28:57,772,777,783,762,771,-3.97,1.90,10.97,0.25,-0.45,0.16
2024-12-25 18:28:57,778,779,786,762,769,-3.36,0.26,10.53,-0.28,0.15,0.18
2024-12-25 18:28:57,784,787,789,765,769,-2.26,-0.10,10.66,-0.25,0.11,-0.05
2024-12-25 18:28:57,781,783,786,763,767,-2.50,0.07,10.04,0.25,0.18,0.20
2024-12-25 18:28:57,779,779,782,763,767,-3.81,0.96,10.32,0.35,0.40,-0.06
2024-12-25 18:28:57,779,778,784,763,768,-3.65,0.94,8.80,-0.56,0.23,0.07
2024-12-25 18:28:57,781,779,786,766,769,-3.97,-0.01,9.95,-0.23,0.14,-0.11
2024-12-25 18:28:57,781,779,786,767,768,-3.94,0.08,9.83,-0.22,0.13,-0.01
2024-12-25 18:28:57,781,780,786,765,769,-3.10,-0.59,9.72,0.20,-0.26,-0.15
2024-12-25 18:28:57,781,781,788,768,769,-3.37,0.05,8.97,-0.37,0.03,0.14
2024-12-25 18:28:57,782,782,792,768,767,-3.27,-0.20,9.78,-0.07,0.21,-0.15
2024-12-25 18:28:57,786,784,792,768,768,-3.59,-0.33,9.61,-0.27,-0.04,-0.16
2024-12-25 18:28:57,788,782,792,770,768,-3.50,-1.01,9.64,-0.03,0.03,0.02
2024-12-25 18:28:57,789,780,792,769,769,-4.17,-0.62,10.04,0.37,-0.01,-0.13
2024-12-25 18:28:57,787,780,790,768,769,-4.12,0.11,9.68,0.23,-0.03,-0.02
2024-12-25 18:28:57,789,779,787,765,770,-3.64,0.63,9.62,-0.02,-0.03,0.03
2024-12-25 18:28:57,786,780,786,764,770,-3.31,0.69,9.93,0.16,0.08,-0.08
2024-12-25 18:28:57,787,780,786,765,770,-3.86,0.56,10.06,-0.11,-0.04,0.05
2024-12-25 18:28:57,787,780,785,764,770,-3.74,0.42,9.28,-0.24,-0.04,-0.12
2024-12-25 18:28:57,789,783,788,767,771,-3.51,-0.18,9.57,-0.43,-0.19,-0.11
2024-12-25 18:28:57,791,784,790,768,770,-3.80,-0.59,9.65,0.00,-0.19,-0.13
2024-12-25 18:28:57,793,784,789,766,770,-3.63,-0.49,9.79,-0.03,0.04,-0.02
2024-12-25 18:28:57,794,783,787,766,772,-3.49,-0.49,9.91,0.04,-0.06,-0.05
2024-12-25 18:28:58,794,784,790,767,771,-3.55,-0.40,9.81,-0.03,-0.04,-0.05
2024-12-25 18:28:58,794,784,792,766,769,-3.46,-0.45,9.81,-0.06,0.00,-0.02
2024-12-25 18:28:58,795,786,792,769,771,-3.41,-0.43,9.85,-0.06,0.02,-0.01
2024-12-25 18:28:58,796,787,795,769,771,-4.35,-0.22,10.02,-0.02,-0.19,-0.02
2024-12-25 18:28:58,794,787,796,768,771,-2.19,-0.16,9.79,-0.11,0.88,0.21
2024-12-25 18:28:58,792,788,795,771,770,-3.55,-0.73,10.48,-0.21,0.29,0.31
2024-12-25 18:28:58,794,787,794,769,771,-3.71,-1.44,11.48,-0.37,0.15,0.21
2024-12-25 18:28:58,793,788,798,771,770,-2.71,-1.14,9.50,-0.20,-0.03,0.01
2024-12-25 18:28:58,791,784,795,769,770,-3.56,-2.07,9.57,-0.03,0.21,0.15
2024-12-25 18:28:58,790,786,796,768,772,-3.78,-0.47,8.87,0.49,0.06,-0.09
2024-12-25 18:28:58,789,783,794,770,772,-3.51,-0.08,10.58,0.21,-0.35,0.03
2024-12-25 18:28:58,788,784,794,770,770,-2.80,1.04,9.93,0.45,0.01,-0.14
2024-12-25 18:28:58,788,788,796,770,772,-3.24,-0.56,8.58,-0.22,0.06,-0.10
2024-12-25 18:28:58,789,785,796,770,771,-2.95,0.86,9.16,-0.09,0.05,0.58
2024-12-25 18:28:58,787,784,793,769,771,-4.27,-0.34,10.97,-0.13,-0.31,-0.14
2024-12-25 18:28:58,787,785,791,765,768,0.14,-0.25,10.06,0.02,-0.55,0.04
2024-12-25 18:28:58,786,784,790,767,768,-1.41,4.39,12.03,0.80,-0.01,-0.55
2024-12-25 18:28:58,786,786,789,768,769,-2.30,1.06,10.01,-0.77,0.10,-0.09
2024-12-25 18:28:58,792,784,791,767,770,-1.18,-0.57,9.75,-0.46,-0.00,-0.06
2024-12-25 18:28:58,793,783,791,769,771,-3.55,0.31,9.73,0.07,0.02,-0.17
2024-12-25 18:28:58,795,784,790,767,773,-3.54,0.19,11.26,0.42,0.22,-0.17
2024-12-25 18:28:58,791,781,790,766,768,-1.75,0.11,9.42,0.07,0.39,-0.08
2024-12-25 18:28:58,790,779,787,765,767,-3.64,0.57,8.93,0.06,0.19,0.19
2024-12-25 18:28:58,792,776,783,766,768,-3.74,0.92,9.62,0.07,0.23,0.03
2024-12-25 18:28:58,790,777,785,766,768,-4.73,1.51,10.36,0.29,-0.07,0.01
2024-12-25 18:28:58,791,778,786,765,768,-3.42,0.92,8.21,-0.18,-0.03,0.00
2024-12-25 18:28:58,790,779,786,767,768,-4.21,1.08,9.32,-0.37,0.23,0.06
2024-12-25 18:28:58,791,779,785,765,770,-4.06,1.45,9.93,-0.04,-0.55,-0.07
2024-12-25 18:28:58,790,780,788,767,770,-3.45,0.65,9.97,-0.28,0.11,0.06
2024-12-25 18:28:58,793,781,787,769,769,-4.61,0.62,9.40,0.17,0.44,0.24
2024-12-25 18:28:58,793,780,787,767,769,-3.99,0.69,8.82,-0.25,0.23,0.02
2024-12-25 18:28:58,794,781,790,767,770,-3.78,0.81,10.56,-0.13,-0.24,-0.17
2024-12-25 18:28:58,794,783,789,768,770,-3.26,0.59,8.96,-0.27,0.14,-0.09
2024-12-25 18:28:58,793,780,786,766,768,-4.02,0.61,8.86,0.14,0.08,0.18
2024-12-25 18:28:58,792,782,787,767,769,-4.73,0.76,11.60,0.24,-0.43,-0.14
2024-12-25 18:28:58,793,781,789,768,770,-3.59,0.92,9.90,-0.43,0.05,-0.06
2024-12-25 18:28:58,793,780,787,766,769,-4.01,0.41,9.82,-0.03,-0.32,-0.18
2024-12-25 18:28:58,794,780,786,768,769,-3.31,0.26,9.82,0.11,0.18,0.09
2024-12-25 18:28:58,792,779,785,765,768,-3.00,0.63,9.84,0.17,-0.01,0.05
2024-12-25 18:28:58,789,780,785,766,767,-3.19,0.96,9.90,0.02,0.10,-0.00
2024-12-25 18:28:58,791,778,786,766,770,-3.35,1.02,9.85,0.01,0.12,-0.03
2024-12-25 18:28:58,790,780,786,765,768,-3.67,0.92,10.06,-0.23,-0.02,-0.02
2024-12-25 18:28:58,792,780,788,766,770,-4.17,-0.03,10.76,-0.22,0.02,-0.19
2024-12-25 18:28:58,792,780,787,765,769,-2.60,0.48,8.92,0.10,-0.16,0.15
2024-12-25 18:28:58,792,781,787,766,771,-2.90,1.17,9.50,0.22,-0.35,0.19
2024-12-25 18:28:58,791,780,788,765,769,-2.90,1.21,9.99,0.07,-0.04,0.07
2024-12-25 18:28:58,791,780,788,767,770,-3.96,1.20,10.33,-0.03,0.22,0.04
2024-12-25 18:28:58,792,781,790,770,770,-2.88,0.90,9.58,-0.21,0.11,-0.10
2024-12-25 18:28:58,793,782,790,767,771,-2.87,0.75,9.89,-0.21,-0.08,-0.05
2024-12-25 18:28:58,790,784,793,771,770,-2.86,0.27,10.21,-0.24,-0.14,-0.13
2024-12-25 18:28:58,791,785,794,771,770,-3.20,0.10,10.15,0.09,0.07,0.02
2024-12-25 18:28:58,790,780,791,769,771,-2.51,0.77,10.06,0.03,-0.16,-0.04
2024-12-25 18:28:58,789,779,786,767,769,-2.52,0.29,9.91,-0.02,0.11,0.08
2024-12-25 18:28:58,789,779,787,766,769,-4.69,1.21,10.88,0.17,-0.07,-0.23
2024-12-25 18:28:58,794,780,790,768,770,-1.49,0.11,9.56,-0.36,-0.07,-0.09
2024-12-25 18:28:58,792,782,789,769,770,-3.01,0.14,10.04,0.02,-0.11,-0.15
2024-12-25 18:28:58,796,784,794,770,770,-2.04,-0.06,10.23,-0.01,-0.08,-0.19
2024-12-25 18:28:58,793,784,791,767,770,-2.41,0.18,10.18,0.04,-0.04,-0.09
2024-12-25 18:28:58,798,789,795,770,770,-1.84,0.83,7.99,0.16,0.48,-0.05
2024-12-25 18:28:58,794,786,793,769,770,0.39,0.62,8.48,-0.27,-0.55,-0.02
2024-12-25 18:28:58,790,786,791,767,769,-2.26,3.00,10.75,0.48,0.18,-0.10
2024-12-25 18:28:58,791,786,793,769,769,-1.23,2.36,10.25,-0.02,0.28,-0.03
2024-12-25 18:28:58,788,786,795,769,767,-1.13,2.41,10.26,0.03,-0.18,-0.00
2024-12-25 18:28:58,789,785,798,771,769,-1.45,2.19,10.19,-0.12,-0.01,-0.02
2024-12-25 18:28:58,789,785,801,774,771,-1.32,2.10,10.26,-0.10,0.10,-0.05
2024-12-25 18:28:58,790,785,801,777,772,-1.44,1.98,10.27,-0.07,0.08,-0.03
2024-12-25 18:28:58,790,786,803,778,773,-1.53,1.98,10.20,-0.05,0.14,-0.06
2024-12-25 18:28:58,791,786,804,779,773,-1.86,2.00,10.16,-0.04,0.07,-0.02
2024-12-25 18:28:58,792,787,806,780,775,-1.64,2.07,10.20,-0.02,0.11,0.00
2024-12-25 18:28:58,792,785,806,780,774,-2.20,1.90,10.07,-0.05,0.14,-0.01
2024-12-25 18:28:58,791,786,805,780,774,-1.98,2.05,10.20,-0.13,-0.22,0.01
2024-12-25 18:28:58,789,787,800,778,773,-2.19,1.13,10.19,-0.42,0.13,-0.13
2024-12-25 18:28:58,790,781,790,768,772,-2.23,1.94,10.22,0.12,0.33,0.06
2024-12-25 18:28:58,790,779,787,766,773,-2.63,1.68,9.93,0.07,0.10,0.09
2024-12-25 18:28:58,790,776,784,761,775,-2.87,2.10,9.77,0.01,0.26,0.11
2024-12-25 18:28:58,789,780,789,760,764,-0.98,3.64,10.64,-0.16,-1.34,0.57
2024-12-25 18:28:58,787,787,799,769,767,-2.90,2.14,9.87,-0.21,0.27,-0.05
2024-12-25 18:28:58,789,787,801,772,770,-2.31,1.81,10.01,-0.07,-0.04,-0.07
2024-12-25 18:28:58,792,786,803,773,775,-2.75,1.48,9.99,-0.04,0.13,-0.01
2024-12-25 18:28:58,795,787,805,774,777,-3.04,1.73,9.95,0.00,-0.07,-0.01
2024-12-25 18:28:58,794,789,806,777,777,-2.56,1.50,10.01,-0.03,-0.09,0.02
2024-12-25 18:28:58,791,788,807,778,776,-2.42,1.58,10.03,-0.09,0.02,-0.04
2024-12-25 18:28:58,793,787,807,778,776,-2.32,1.04,10.16,-0.14,0.08,-0.02
2024-12-25 18:28:58,793,787,804,779,776,-2.37,1.46,10.05,-0.01,0.05,-0.05
2024-12-25 18:28:58,793,786,806,778,777,-2.65,1.61,9.97,-0.05,0.12,-0.02
2024-12-25 18:28:58,794,789,807,777,777,-2.91,1.48,9.94,-0.04,0.01,-0.02
2024-12-25 18:28:58,792,788,807,778,777,-2.69,1.52,10.02,-0.00,-0.06,-0.03
2024-12-25 18:28:58,794,787,805,778,776,-2.56,1.62,10.01,-0.04,0.09,-0.01
2024-12-25 18:28:58,793,787,806,777,775,-2.77,1.51,10.00,-0.05,0.04,-0.02
2024-12-25 18:28:58,793,786,807,778,777,-2.70,1.44,10.03,-0.07,0.07,-0.02
2024-12-25 18:28:58,793,788,806,777,777,-2.55,1.45,10.00,-0.01,0.06,-0.06
2024-12-25 18:28:58,792,787,808,779,776,-2.77,1.58,9.99,-0.02,0.10,-0.02
2024-12-25 18:28:58,794,788,805,777,775,-2.77,1.53,9.98,-0.02,0.04,-0.02
2024-12-25 18:28:58,793,788,808,778,776,-2.66,1.54,10.02,-0.05,0.03,-0.01
2024-12-25 18:28:58,794,786,809,778,777,-2.59,1.46,10.05,-0.04,0.02,-0.01
2024-12-25 18:28:58,793,788,805,778,777,-3.05,1.56,9.82,-0.04,-0.02,-0.00
2024-12-25 18:28:58,792,788,806,778,775,-2.20,1.39,10.18,-0.01,-0.04,-0.02
2024-12-25 18:28:58,794,789,806,779,777,-2.63,1.50,10.04,-0.06,0.04,-0.02
2024-12-25 18:28:58,793,787,804,778,776,-2.50,1.50,10.01,-0.06,0.06,-0.01
2024-12-25 18:28:58,793,789,806,778,777,-2.50,1.48,10.13,-0.04,0.06,-0.02
2024-12-25 18:28:58,793,787,804,777,775,-2.52,1.59,10.11,-0.03,0.08,-0.03
2024-12-25 18:28:58,792,787,806,778,773,-2.49,1.62,10.07,-0.03,0.04,-0.01
2024-12-25 18:28:58,791,787,806,777,774,-2.51,1.48,10.07,-0.05,0.03,0.01
2024-12-25 18:28:58,789,788,805,777,775,-2.52,1.54,10.09,-0.04,0.02,-0.01
2024-12-25 18:28:58,790,787,807,776,775,-2.50,1.38,10.10,-0.03,-0.02,-0.02
2024-12-25 18:28:58,792,787,805,778,773,-2.56,1.50,10.08,-0.05,0.04,-0.02
2024-12-25 18:28:58,791,788,806,778,774,-2.54,1.49,10.02,-0.03,0.03,-0.02
2024-12-25 18:28:58,790,789,805,780,774,-2.63,1.44,10.04,-0.05,0.04,-0.01
2024-12-25 18:28:58,792,787,805,778,775,-2.62,1.49,10.04,-0.05,0.03,-0.00
2024-12-25 18:28:58,793,788,806,778,777,-2.55,1.48,10.06,-0.04,0.02,-0.01
2024-12-25 18:28:58,790,787,805,779,774,-2.58,1.48,10.05,-0.04,0.02,-0.01
2024-12-25 18:28:58,794,789,807,778,776,-2.55,1.50,10.04,-0.04,0.02,-0.01
2024-12-25 18:28:58,793,787,804,778,775,-2.44,1.64,10.38,0.02,-0.00,0.03
2024-12-25 18:28:58,791,789,803,783,779,-2.44,-2.75,14.09,-1.83,-0.01,-0.01
2024-12-25 18:28:58,786,787,801,791,783,-2.61,0.19,9.32,-0.88,-0.65,0.87
2024-12-25 18:28:58,786,788,802,791,784,0.26,-3.36,4.60,0.24,-0.73,-0.00
2024-12-25 18:28:58,789,791,804,789,783,-0.41,-1.79,10.79,1.26,-0.74,0.19
2024-12-25 18:28:58,786,790,804,784,779,-1.60,-0.55,11.57,0.41,0.52,0.26
2024-12-25 18:28:58,787,791,804,782,778,-0.56,1.11,11.83,0.31,0.53,-0.08
2024-12-25 18:28:58,788,791,804,782,779,-1.04,-0.45,10.12,0.30,0.42,-0.16
2024-12-25 18:28:58,787,792,803,780,777,-1.88,1.18,11.49,0.17,-0.22,-0.21
2024-12-25 18:28:58,788,793,803,780,778,-0.51,0.60,10.22,-0.17,0.28,-0.52
2024-12-25 18:28:58,788,792,805,782,778,-1.63,0.31,10.10,-0.41,0.26,-0.13
2024-12-25 18:28:58,788,793,807,780,777,-1.33,-1.05,9.95,-0.13,-0.40,0.05
2024-12-25 18:28:58,788,792,804,781,778,-2.31,-0.32,11.83,0.13,-0.15,0.00
2024-12-25 18:28:58,787,790,800,778,775,-2.42,-0.01,10.88,0.32,0.38,0.04
2024-12-25 18:28:58,789,788,792,774,772,-1.49,1.68,9.10,0.20,0.28,0.12
2024-12-25 18:28:58,788,786,792,775,771,-2.96,0.41,9.89,-0.80,-0.42,0.12
2024-12-25 18:28:58,789,784,796,773,772,-2.60,-0.74,9.94,-0.29,0.44,-0.32
2024-12-25 18:28:58,789,789,795,774,773,-1.82,-0.80,10.27,-0.07,-0.31,-0.13
2024-12-25 18:28:58,788,788,797,772,772,-2.61,-0.79,10.50,-0.13,0.03,-0.06
2024-12-25 18:28:58,790,788,798,776,775,-2.67,-1.00,10.26,0.00,0.03,-0.09
2024-12-25 18:28:58,792,788,798,775,774,-2.55,-1.10,9.97,-0.18,-0.07,-0.04
2024-12-25 18:28:58,790,788,800,776,774,-2.82,-1.01,10.31,0.11,0.07,-0.01
2024-12-25 18:28:58,791,788,803,777,773,-2.36,-1.33,10.23,-0.07,-0.12,0.01
2024-12-25 18:28:58,788,790,803,778,774,-1.95,-0.97,9.88,-0.00,-0.06,-0.05
2024-12-25 18:28:58,788,789,804,777,773,-2.04,-1.16,10.01,-0.26,-0.24,-0.06
2024-12-25 18:28:58,790,790,804,777,775,-1.85,-1.03,10.38,0.04,-0.02,0.05
2024-12-25 18:28:58,787,791,805,777,775,-2.26,-1.30,10.43,-0.03,0.09,0.06
2024-12-25 18:28:58,790,791,803,778,776,-3.04,-1.64,10.12,-0.65,-0.57,0.17
2024-12-25 18:28:58,788,787,803,779,777,1.75,-2.99,12.19,-0.37,0.29,1.26
2024-12-25 18:28:58,789,789,805,782,780,-0.91,-4.09,8.86,-0.68,0.56,1.56
2024-12-25 18:28:58,787,786,807,783,781,-1.46,-4.13,8.90,-0.38,-0.37,0.64
2024-12-25 18:28:58,786,790,808,785,780,-1.94,-5.01,8.64,-0.21,0.05,-0.04
2024-12-25 18:28:58,788,790,811,785,782,-1.96,-5.38,8.91,-0.10,-0.05,0.06
2024-12-25 18:28:58,789,788,809,784,782,-1.89,-5.43,8.65,-0.09,0.04,0.02
2024-12-25 18:28:58,789,788,811,786,782,-2.20,-5.13,8.66,0.04,0.11,0.03
2024-12-25 18:28:58,788,788,809,786,783,-1.90,-5.20,8.90,0.00,0.04,-0.02
2024-12-25 18:28:58,788,789,811,786,782,-2.58,-5.06,8.94,0.02,0.16,0.04
2024-12-25 18:28:58,788,788,810,784,781,-2.02,-5.06,8.94,0.01,0.05,0.05
2024-12-25 18:28:58,788,786,810,787,782,-2.05,-5.35,8.84,-0.37,-0.62,-0.13
2024-12-25 18:28:58,784,792,824,804,806,-1.03,-8.24,7.68,-1.73,-0.27,-0.97
2024-12-25 18:28:58,780,790,825,813,835,-1.64,-8.67,5.84,-0.53,0.41,0.12
2024-12-25 18:28:58,779,786,811,833,835,-1.60,-8.49,5.18,0.25,-0.43,0.22
2024-12-25 18:28:58,776,776,802,844,842,-1.09,-8.12,6.46,0.50,0.43,-0.51
2024-12-25 18:28:58,774,789,833,848,847,-1.55,-7.81,4.97,-0.04,0.32,0.26
2024-12-25 18:28:58,775,782,808,842,839,-1.14,-8.64,6.14,-0.50,-0.30,0.04
2024-12-25 18:28:58,772,783,816,839,833,-1.62,-7.54,4.93,0.90,0.50,-0.34
2024-12-25 18:28:58,778,783,792,833,812,-3.01,-7.54,7.16,1.40,0.91,-0.48
2024-12-25 18:28:58,780,784,787,784,788,-0.46,-4.83,8.86,2.35,0.13,-1.55
2024-12-25 18:28:58,778,783,785,773,779,-1.68,-1.63,11.13,0.86,0.43,0.09
2024-12-25 18:28:58,784,782,788,772,780,-2.36,-1.35,10.09,0.24,0.13,-0.11
2024-12-25 18:28:58,787,786,814,780,781,-2.58,-1.40,10.57,-0.01,-0.28,0.13
2024-12-25 18:28:58,787,787,817,780,780,-2.27,-1.62,10.52,0.15,0.14,0.02
2024-12-25 18:28:58,787,787,821,781,780,-2.38,-1.53,10.44,-0.17,-0.15,-0.25
2024-12-25 18:28:58,783,785,803,772,778,-2.42,-0.11,9.56,0.81,0.14,0.10
2024-12-25 18:28:58,783,780,786,764,771,-2.61,1.40,10.07,0.40,0.03,0.13
2024-12-25 18:28:58,781,779,786,765,769,-3.37,0.85,9.89,-0.24,0.19,-0.10
2024-12-25 18:28:58,780,779,785,764,769,-2.02,-0.06,10.66,-0.57,-0.17,-0.17
2024-12-25 18:28:58,781,780,785,766,772,-2.58,0.59,8.92,0.51,0.25,-0.01
2024-12-25 18:28:58,783,779,782,764,772,-2.95,0.92,10.47,-0.00,-0.68,0.17
2024-12-25 18:28:58,784,780,786,767,773,-3.27,0.31,11.00,-0.23,0.75,-0.08
2024-12-25 18:28:58,786,782,786,770,775,-3.29,-0.08,10.23,-0.19,0.01,0.02
2024-12-25 18:28:58,787,784,793,771,775,-2.93,0.56,9.22,-0.26,0.14,0.19
2024-12-25 18:28:58,789,785,794,773,775,-3.71,-0.50,9.42,-0.28,0.02,-0.08
2024-12-25 18:28:58,790,784,798,771,776,-2.92,-0.31,10.47,-0.11,-0.10,-0.01
2024-12-25 18:28:58,789,783,791,772,775,-3.15,-0.43,9.95,0.42,0.08,0.06
2024-12-25 18:28:58,785,781,787,768,771,-3.20,0.39,10.03,-0.07,0.12,0.16
2024-12-25 18:28:58,782,782,785,767,772,-2.56,0.79,10.69,-0.21,-0.13,0.01
2024-12-25 18:28:58,783,780,787,765,773,-3.22,0.12,9.38,-0.24,0.17,0.06
2024-12-25 18:28:58,784,782,788,768,772,-3.28,-0.01,9.85,-0.16,-0.07,-0.06
2024-12-25 18:28:58,784,782,789,771,771,-3.49,-1.02,9.96,-0.76,-0.00,-0.32
2024-12-25 18:28:58,782,784,797,796,794,-3.31,-2.47,9.66,-1.02,0.04,-0.20
2024-12-25 18:28:58,777,783,798,814,808,-3.74,-4.05,8.63,-1.47,0.55,-0.12
2024-12-25 18:28:58,779,782,806,816,815,-3.96,-5.57,7.55,-0.60,0.07,0.13
2024-12-25 18:28:58,776,780,802,828,826,-4.30,-5.86,7.16,-0.00,-0.06,-0.07
2024-12-25 18:28:58,776,779,798,827,824,-3.97,-5.89,7.28,0.02,0.06,-0.04
2024-12-25 18:28:59,777,775,798,825,823,-3.91,-5.93,7.48,-0.08,0.04,-0.01
2024-12-25 18:28:59,777,776,797,825,825,-4.07,-5.98,7.33,-0.06,0.03,-0.04
2024-12-25 18:28:59,777,777,799,842,835,-3.99,-6.08,7.32,-0.15,0.08,-0.07
2024-12-25 18:28:59,778,775,796,859,847,-3.92,-6.25,7.12,0.01,0.05,-0.13
2024-12-25 18:28:59,779,774,796,857,846,-4.02,-6.35,7.14,-0.03,0.07,-0.08
2024-12-25 18:29:00,779,773,794,857,846,-3.89,-6.25,7.07,-0.01,0.03,-0.03
2024-12-25 18:29:00,777,773,795,856,844,-3.81,-6.25,7.17,-0.04,0.00,-0.04
2024-12-25 18:29:00,779,773,794,856,845,-3.93,-6.31,7.14,-0.01,0.01,-0.03
2024-12-25 18:29:00,777,772,795,855,842,-4.03,-6.20,7.30,-0.02,0.07,-0.00
2024-12-25 18:29:00,778,773,794,854,843,-3.92,-6.30,7.08,-0.08,0.09,-0.04
2024-12-25 18:29:01,777,774,793,854,843,-3.70,-6.26,7.10,-0.04,0.01,-0.04
2024-12-25 18:29:01,779,774,794,854,842,-3.70,-6.40,7.09,0.01,0.00,-0.02
2024-12-25 18:29:01,777,773,795,855,840,-3.75,-6.11,7.21,-0.01,-0.02,0.01
2024-12-25 18:29:01,778,772,796,853,841,-3.89,-6.24,7.24,0.01,0.03,0.00
2024-12-25 18:29:01,778,772,797,853,842,-3.67,-6.30,7.19,-0.06,0.07,-0.04
2024-12-25 18:29:01,777,774,797,853,838,-3.52,-6.22,7.37,0.05,-0.01,-0.01
2024-12-25 18:29:02,778,774,796,853,840,-3.93,-6.24,7.28,-0.07,-0.02,0.00
2024-12-25 18:29:02,781,776,797,853,840,-3.68,-6.10,7.20,-0.04,0.04,-0.04
2024-12-25 18:29:02,778,775,797,851,838,-3.54,-6.27,7.37,0.03,0.04,-0.02
2024-12-25 18:29:02,781,774,800,853,838,-3.85,-6.28,7.38,-0.05,-0.03,-0.00
2024-12-25 18:29:02,779,777,800,851,838,-3.33,-6.17,7.29,-0.03,0.00,0.02
2024-12-25 18:29:03,781,776,801,852,839,-3.58,-6.08,7.31,0.00,-0.02,-0.01
2024-12-25 18:29:03,781,778,801,851,838,-3.60,-6.30,7.62,0.00,0.04,0.03
2024-12-25 18:29:03,779,779,801,852,838,-3.51,-6.13,7.42,-0.03,0.01,-0.03
2024-12-25 18:29:03,781,775,800,852,839,-3.55,-6.08,7.51,-0.03,0.01,-0.02
2024-12-25 18:29:03,780,776,803,851,839,-3.54,-6.16,7.42,-0.04,0.02,-0.01
2024-12-25 18:29:04,779,776,801,854,838,-3.49,-6.18,7.48,-0.04,0.03,-0.02
2024-12-25 18:29:04,779,776,803,853,838,-3.54,-6.22,7.57,-0.05,0.02,-0.02
2024-12-25 18:29:04,778,776,800,850,837,-3.19,-6.32,7.36,-0.03,-0.00,-0.01
2024-12-25 18:29:04,780,777,803,853,838,-3.47,-6.29,7.59,-0.09,0.06,0.04
2024-12-25 18:29:04,781,775,801,852,838,-3.73,-6.23,7.29,-0.13,0.11,0.00
2024-12-25 18:29:04,779,776,800,851,839,-3.22,-6.20,7.22,-0.03,0.02,-0.07
2024-12-25 18:29:05,783,777,800,853,837,-3.84,-6.32,7.17,-0.22,0.07,-0.00
2024-12-25 18:29:05,781,776,799,850,837,-3.50,-6.70,7.14,-0.16,0.06,-0.02
2024-12-25 18:29:05,780,777,800,854,838,-3.29,-6.81,6.68,-0.13,0.02,-0.04
2024-12-25 18:29:05,780,777,797,852,837,-3.47,-6.68,6.81,-0.01,0.04,0.01
2024-12-25 18:29:05,778,775,798,851,837,-3.70,-6.97,7.02,-0.19,0.02,-0.18
2024-12-25 18:29:06,782,774,793,850,837,-3.24,-6.93,6.77,0.03,0.04,-0.04
2024-12-25 18:29:06,779,773,792,851,835,-3.26,-6.64,6.84,0.09,-0.02,0.04
2024-12-25 18:29:06,781,773,796,850,837,-3.71,-6.77,7.06,0.18,-0.04,0.01
2024-12-25 18:29:06,782,774,798,850,837,-3.58,-6.52,7.41,0.01,0.01,-0.02
2024-12-25 18:29:06,780,773,796,849,835,-3.18,-6.24,7.30,0.04,0.04,-0.02
2024-12-25 18:29:07,779,774,796,851,833,-3.41,-6.45,7.51,-0.05,0.03,-0.03
2024-12-25 18:29:07,781,776,795,851,834,-3.50,-6.29,7.42,-0.09,0.06,0.03
2024-12-25 18:29:07,779,774,797,848,834,-3.45,-6.55,7.25,-0.10,0.04,-0.11
2024-12-25 18:29:07,780,772,795,848,835,-3.26,-6.31,7.02,-0.03,-0.02,-0.07
2024-12-25 18:29:07,779,772,796,851,834,-3.44,-6.46,7.24,0.00,-0.02,-0.09
2024-12-25 18:29:07,778,774,798,850,834,-3.34,-6.45,7.21,-0.02,0.04,-0.02
2024-12-25 18:29:08,776,775,798,849,834,-3.46,-6.46,7.24,-0.03,0.01,-0.02
2024-12-25 18:29:08,777,774,797,850,834,-3.53,-6.51,7.27,-0.01,0.01,-0.10
2024-12-25 18:29:08,779,775,798,849,834,-3.18,-6.49,7.52,-0.04,0.01,0.01
2024-12-25 18:29:08,778,774,797,849,833,-3.43,-6.45,7.31,-0.00,0.00,-0.02
2024-12-25 18:29:08,779,774,801,850,836,-3.27,-6.51,7.48,-0.01,0.04,0.02
2024-12-25 18:29:09,780,774,800,852,837,-3.13,-6.46,7.54,-0.08,0.02,-0.08
2024-12-25 18:29:09,778,775,800,850,835,-3.31,-6.58,7.23,-0.10,0.10,0.02
2024-12-25 18:29:09,779,775,801,852,835,-3.09,-6.50,7.17,-0.09,0.06,-0.01
2024-12-25 18:29:09,777,774,798,850,834,-3.26,-6.53,7.11,-0.01,0.01,-0.01
2024-12-25 18:29:09,780,774,798,849,834,-3.38,-6.62,7.34,0.02,0.02,-0.02
2024-12-25 18:29:10,778,776,798,849,834,-2.98,-6.41,7.32,-0.05,0.07,0.09
2024-12-25 18:29:10,777,771,798,848,833,-3.57,-6.65,7.29,-0.10,0.03,-0.03
2024-12-25 18:29:10,779,774,800,848,836,-3.51,-6.43,7.03,-0.05,0.04,-0.01
2024-12-25 18:29:10,778,775,799,849,833,-3.34,-6.47,7.28,-0.01,0.02,-0.01
2024-12-25 18:29:10,776,775,800,852,836,-3.45,-6.67,7.32,-0.02,0.03,-0.01
2024-12-25 18:29:10,778,776,799,848,834,-3.30,-6.52,7.14,-0.11,0.02,-0.03
2024-12-25 18:29:11,778,775,800,849,835,-3.37,-6.48,7.14,-0.04,0.03,-0.01
2024-12-25 18:29:11,781,777,801,851,834,-3.38,-6.54,7.18,-0.01,0.00,-0.04
2024-12-25 18:29:11,779,775,802,849,835,-3.30,-6.49,7.36,-0.05,0.03,-0.01
2024-12-25 18:29:11,778,776,804,849,833,-3.31,-6.61,7.29,-0.02,0.02,0.00
2024-12-25 18:29:11,777,775,802,851,833,-3.27,-6.54,7.31,-0.09,0.04,-0.03
2024-12-25 18:29:12,779,775,800,850,835,-3.38,-6.61,7.01,-0.11,0.05,-0.01
2024-12-25 18:29:12,778,776,803,849,835,-3.23,-6.51,7.24,-0.03,0.00,-0.03
2024-12-25 18:29:12,778,774,802,851,833,-3.28,-6.75,7.12,0.01,0.01,0.00
2024-12-25 18:29:12,779,775,802,850,836,-3.30,-6.66,7.10,-0.04,0.03,-0.00
2024-12-25 18:29:12,780,776,801,849,835,-3.34,-6.71,7.23,-0.00,0.03,-0.01
2024-12-25 18:29:13,779,776,800,849,834,-3.21,-6.71,7.07,-0.02,0.03,0.01
2024-12-25 18:29:13,779,775,804,849,834,-3.33,-6.65,6.92,-0.02,0.02,0.02
2024-12-25 18:29:13,780,776,802,848,833,-3.45,-6.74,7.00,-0.05,0.04,0.02
2024-12-25 18:29:13,779,777,801,850,834,-3.30,-6.43,7.14,-0.05,0.02,-0.01
2024-12-25 18:29:13,778,776,803,849,833,-3.70,-6.69,7.13,-0.00,0.04,-0.02
2024-12-25 18:29:13,779,775,802,850,835,-3.39,-6.58,7.00,-0.01,0.03,-0.02
2024-12-25 18:29:14,778,776,800,851,836,-3.54,-6.64,7.02,-0.06,0.03,-0.01
2024-12-25 18:29:14,778,776,801,849,833,-3.39,-6.54,7.18,-0.05,0.02,0.02
2024-12-25 18:29:14,780,776,801,849,833,-3.67,-6.56,6.83,-0.04,0.04,0.01
2024-12-25 18:29:14,779,776,802,850,833,-3.56,-6.55,7.03,-0.00,0.00,-0.03
2024-12-25 18:29:14,780,775,800,848,833,-3.51,-6.59,7.11,-0.04,0.03,-0.04
2024-12-25 18:29:15,780,775,800,850,833,-3.50,-6.45,6.96,-0.03,0.05,0.03
2024-12-25 18:29:15,779,777,802,850,833,-3.58,-6.59,7.01,-0.01,0.04,0.02
2024-12-25 18:29:15,777,776,800,848,832,-3.87,-6.49,7.16,-0.08,-0.01,-0.02
2024-12-25 18:29:15,780,777,802,853,834,-3.71,-6.48,7.03,-0.06,-0.01,-0.01
2024-12-25 18:29:15,778,777,800,849,833,-3.68,-6.61,7.06,-0.05,0.04,0.01
2024-12-25 18:29:16,778,777,802,851,832,-3.84,-6.66,6.63,-0.16,0.17,0.06
2024-12-25 18:29:16,779,778,801,850,834,-4.15,-6.76,6.75,0.00,0.01,0.00
2024-12-25 18:29:16,779,776,801,849,834,-3.83,-6.96,6.36,-0.11,0.05,0.00
2024-12-25 18:29:16,778,778,801,849,835,-3.68,-6.34,6.56,-0.04,-0.04,-0.07
2024-12-25 18:29:16,780,776,801,849,834,-3.89,-6.63,6.61,-0.00,-0.01,0.03
2024-12-25 18:29:16,777,777,802,848,835,-4.16,-6.89,7.06,0.03,0.00,-0.02
2024-12-25 18:29:17,778,778,803,848,834,-3.89,-6.53,6.73,-0.05,-0.01,-0.04
2024-12-25 18:29:17,779,776,802,848,833,-3.73,-6.57,6.83,-0.01,0.05,-0.01
2024-12-25 18:29:17,779,778,803,850,834,-3.62,-6.59,6.79,-0.02,0.01,-0.04
2024-12-25 18:29:17,780,776,801,848,834,-3.70,-6.58,7.03,0.00,-0.02,-0.01
2024-12-25 18:29:17,779,778,802,850,834,-3.73,-6.62,6.83,-0.05,0.03,0.00
2024-12-25 18:29:18,779,778,803,848,834,-3.65,-6.52,6.99,-0.06,0.04,-0.04
2024-12-25 18:29:18,779,778,801,851,834,-3.70,-6.60,6.87,-0.05,0.02,-0.02
2024-12-25 18:29:18,780,778,803,849,833,-3.74,-6.66,6.86,-0.08,0.02,-0.00
2024-12-25 18:29:18,778,777,800,848,834,-3.81,-6.74,6.83,-0.08,0.02,0.00
2024-12-25 18:29:18,783,777,796,846,832,-3.90,-6.20,6.91,-0.25,0.56,-0.01
2024-12-25 18:29:18,778,776,786,843,821,-4.81,-6.94,5.89,0.17,0.39,-0.11
2024-12-25 18:29:19,770,777,800,836,821,-4.10,-6.54,6.46,-1.10,-0.40,0.02
2024-12-25 18:29:19,776,786,819,843,833,-4.32,-7.42,5.60,-0.36,-0.01,-0.12
2024-12-25 18:29:19,775,774,787,820,804,-4.29,-7.70,5.40,0.78,0.83,-0.23
2024-12-25 18:29:19,772,774,783,818,802,-4.54,-7.74,6.26,-0.79,-0.74,0.53
2024-12-25 18:29:19,777,788,825,832,824,-4.10,-7.83,5.33,-0.19,-0.19,-0.00
2024-12-25 18:29:20,775,778,793,822,808,-4.30,-7.62,5.59,0.69,0.88,-0.14
2024-12-25 18:29:20,775,774,784,837,805,-4.19,-6.70,5.78,0.34,0.19,-0.01
2024-12-25 18:29:20,772,781,823,820,815,-4.26,-7.30,6.92,-0.75,0.16,-0.01
2024-12-25 18:29:20,776,779,805,822,814,-3.53,-8.03,5.40,0.05,0.41,-0.09
2024-12-25 18:29:20,774,775,784,805,800,-3.90,-7.28,5.87,0.30,0.38,-0.10
2024-12-25 18:29:21,774,775,792,807,801,-3.86,-7.59,4.82,-0.95,-0.98,0.19
2024-12-25 18:29:21,774,789,822,818,812,-4.07,-7.84,5.41,0.02,-0.07,0.02
2024-12-25 18:29:21,773,780,792,809,802,-3.74,-7.60,5.57,0.57,0.82,-0.24
2024-12-25 18:29:21,771,775,783,808,799,-3.98,-6.91,6.33,-0.04,0.03,-0.05
2024-12-25 18:29:21,776,780,804,812,809,-2.61,-5.90,5.50,-0.47,-0.83,0.19
2024-12-25 18:29:21,777,782,810,838,825,-3.66,-7.96,5.69,-0.22,0.01,-0.18
2024-12-25 18:29:22,775,776,786,836,802,-3.75,-7.60,5.35,0.26,0.55,-0.15
2024-12-25 18:29:22,778,775,783,854,827,-3.77,-7.99,5.27,-0.61,-0.44,0.02
2024-12-25 18:29:22,799,775,786,861,845,-3.59,-7.79,4.99,0.03,-0.26,0.14
2024-12-25 18:29:22,789,773,785,854,832,-3.49,-8.13,5.35,0.15,0.44,-0.01
2024-12-25 18:29:22,776,772,788,838,819,-3.21,-8.24,4.90,-0.57,-0.59,0.20
2024-12-25 18:29:23,774,781,813,844,826,-3.94,-8.26,5.13,0.08,0.05,0.07
2024-12-25 18:29:23,775,778,787,824,799,-3.90,-7.70,5.40,0.66,0.91,-0.17
2024-12-25 18:29:23,777,776,786,826,800,-4.15,-8.68,6.07,-0.45,-0.48,0.40
2024-12-25 18:29:23,780,783,808,850,835,-3.77,-8.04,5.64,-0.22,-0.22,0.01
2024-12-25 18:29:23,782,780,798,839,819,-3.37,-8.17,5.25,0.42,0.75,-0.10
2024-12-25 18:29:24,776,778,785,814,797,-3.84,-6.90,6.15,-0.28,0.20,-0.01
2024-12-25 18:29:24,776,784,817,821,815,-3.77,-6.63,4.86,-0.38,-0.28,0.16
2024-12-25 18:29:24,775,789,825,839,825,-3.67,-7.58,5.57,0.11,0.07,-0.10
2024-12-25 18:29:24,777,781,791,821,805,-3.82,-7.56,5.66,0.56,0.75,-0.23
2024-12-25 18:29:24,776,779,784,832,805,-4.14,-7.74,5.29,0.65,0.24,0.13
2024-12-25 18:29:24,778,782,825,826,820,-3.70,-5.83,6.62,-0.94,-0.45,0.08
2024-12-25 18:29:25,776,783,821,828,820,-4.24,-7.54,6.11,-0.52,0.03,-0.16
2024-12-25 18:29:25,774,778,790,816,799,-4.26,-7.35,6.26,0.49,0.56,-0.11
2024-12-25 18:29:25,777,776,793,819,804,-3.49,-7.19,5.42,-1.25,-1.29,0.25
2024-12-25 18:29:25,774,785,823,831,817,-4.00,-7.68,5.66,-0.04,-0.18,-0.04
2024-12-25 18:29:25,772,778,793,822,804,-4.05,-7.77,5.87,0.43,0.27,-0.00
2024-12-25 18:29:26,766,775,783,837,804,-4.27,-6.85,5.83,0.10,0.23,-0.12
2024-12-25 18:29:26,780,774,789,851,838,-3.37,-7.18,5.04,-0.32,-0.56,0.22
2024-12-25 18:29:26,783,777,798,849,835,-3.87,-7.52,6.03,-0.12,-0.03,-0.19
2024-12-25 18:29:26,776,772,785,832,801,-4.16,-7.44,5.84,-0.08,0.18,-0.28
2024-12-25 18:29:26,776,778,797,833,816,-3.18,-7.78,4.73,-0.53,-0.63,0.28
2024-12-25 18:29:27,776,784,821,839,823,-3.51,-7.72,5.59,-0.02,0.06,0.06
2024-12-25 18:29:27,775,777,795,827,803,-3.68,-7.74,5.40,0.64,0.68,-0.21
2024-12-25 18:29:27,772,775,783,834,799,-4.34,-7.26,5.86,-0.01,-0.02,-0.03
2024-12-25 18:29:27,774,786,823,827,818,-4.38,-7.81,5.96,-0.28,0.19,0.18
2024-12-25 18:29:27,773,778,804,822,810,-3.43,-8.15,5.57,0.60,0.66,-0.14
2024-12-25 18:29:27,772,775,784,797,800,-4.02,-6.97,5.93,0.13,0.33,-0.13
2024-12-25 18:29:28,775,778,804,824,819,-3.39,-6.59,5.82,-0.53,-0.23,0.13
2024-12-25 18:29:28,776,779,807,843,828,-3.75,-7.40,5.98,0.01,-0.02,-0.14
2024-12-25 18:29:28,772,774,786,823,806,-3.50,-7.53,5.73,0.45,0.74,-0.28
2024-12-25 18:29:28,773,775,785,831,806,-4.49,-8.05,6.34,-0.71,-0.55,0.13
2024-12-25 18:29:28,774,778,803,830,822,-3.58,-7.71,5.69,-0.30,-0.26,-0.01
2024-12-25 18:29:29,775,774,792,827,816,-2.94,-8.15,5.29,0.70,1.02,-0.20
2024-12-25 18:29:29,771,772,782,821,803,-3.90,-7.30,5.73,0.01,0.20,-0.01
2024-12-25 18:29:29,772,780,813,831,824,-4.02,-7.85,5.96,-0.07,0.22,0.27
2024-12-25 18:29:29,770,776,806,834,822,-3.87,-8.04,6.45,-0.04,0.20,-0.21
2024-12-25 18:29:29,772,774,783,804,798,-3.72,-7.10,6.05,-0.09,0.59,-0.26
2024-12-25 18:29:30,772,781,818,823,816,-1.95,-4.11,4.68,0.19,-0.73,0.26
2024-12-25 18:29:30,770,781,810,847,831,-3.88,-7.21,6.56,-0.11,0.15,-0.08
2024-12-25 18:29:30,773,778,784,811,795,-4.31,-7.41,6.04,-0.02,0.56,-0.22
2024-12-25 18:29:30,775,776,784,849,809,-4.03,-7.97,6.14,-0.59,-0.37,-0.02
2024-12-25 18:29:30,775,781,804,842,826,-3.40,-7.51,5.76,0.12,-0.34,-0.11
2024-12-25 18:29:30,775,777,793,828,805,-3.91,-8.16,5.65,0.91,1.09,-0.09
2024-12-25 18:29:31,773,775,786,828,796,-3.68,-7.39,5.37,0.10,0.17,-0.14
2024-12-25 18:29:31,776,780,806,853,835,-3.47,-7.94,6.67,-0.05,0.19,0.21
2024-12-25 18:29:31,779,777,797,842,820,-3.57,-7.30,6.32,0.73,0.73,-0.07
2024-12-25 18:29:31,774,778,784,826,811,-3.71,-7.07,6.73,0.58,0.58,-0.23
2024-12-25 18:29:31,774,773,786,853,826,-4.12,-8.39,6.67,-1.07,-0.96,0.15
2024-12-25 18:29:32,777,780,811,854,841,-3.21,-7.37,6.90,-0.51,-0.23,-0.15
2024-12-25 18:29:32,774,774,785,836,808,-3.75,-7.70,6.37,0.16,0.62,-0.21
2024-12-25 18:29:32,775,772,783,843,826,-3.91,-8.93,6.33,-0.90,-1.44,0.34
2024-12-25 18:29:32,777,778,807,859,845,-3.38,-7.25,6.61,-0.40,-0.08,-0.07
2024-12-25 18:29:32,774,773,784,826,804,-3.83,-7.66,6.09,0.28,0.89,-0.20
2024-12-25 18:29:33,772,773,784,836,809,-4.06,-7.54,5.98,-0.61,-0.63,0.02
2024-12-25 18:29:33,769,779,817,840,828,-3.39,-7.56,5.70,-0.10,-0.28,-0.09
2024-12-25 18:29:33,775,773,789,821,804,-3.50,-7.86,5.43,0.31,0.73,-0.06
2024-12-25 18:29:33,773,772,782,809,802,-3.17,-7.40,5.40,0.38,0.29,-0.07
2024-12-25 18:29:33,776,778,808,825,818,-2.13,-4.82,5.03,-0.05,-1.42,0.42
2024-12-25 18:29:33,773,780,813,858,843,-3.55,-8.40,7.38,-0.18,0.25,-0.02
2024-12-25 18:29:34,771,777,783,841,804,-4.71,-7.11,4.25,-0.11,-0.20,0.25
2024-12-25 18:29:34,775,777,791,846,831,-2.37,-7.14,5.61,-0.46,-0.82,0.83
2024-12-25 18:29:34,774,781,807,852,837,-2.75,-8.71,7.09,0.07,-0.18,-0.57
2024-12-25 18:29:34,774,777,784,825,805,-2.97,-6.82,6.30,0.27,0.89,-0.05
2024-12-25 18:29:34,774,774,786,840,821,-3.68,-7.69,6.10,-0.36,-1.42,0.63
2024-12-25 18:29:35,772,781,815,849,835,-2.74,-6.88,7.52,-0.26,-0.15,-0.11
2024-12-25 18:29:35,771,772,790,828,803,-2.57,-7.60,6.62,0.22,0.81,-0.27
2024-12-25 18:29:35,769,771,785,842,821,-2.90,-8.54,6.03,-0.52,-0.66,0.18
2024-12-25 18:29:35,771,780,809,851,839,-2.67,-7.12,6.94,-0.00,-0.04,-0.07
2024-12-25 18:29:35,768,773,786,814,802,-2.88,-7.30,6.65,0.97,1.08,-0.33
2024-12-25 18:29:36,770,773,785,847,820,-3.89,-7.40,5.95,-0.61,-1.37,0.23
2024-12-25 18:29:36,770,779,810,860,849,-2.55,-7.18,6.93,-0.06,-0.21,-0.14
2024-12-25 18:29:36,771,774,788,849,816,-2.44,-7.22,6.11,0.38,0.92,-0.21
2024-12-25 18:29:36,776,775,789,862,842,-2.07,-8.60,5.41,-0.55,-1.21,0.40
2024-12-25 18:29:36,780,779,809,863,845,-2.57,-7.34,6.55,0.09,0.10,0.01
2024-12-25 18:29:36,773,774,786,856,817,-2.72,-7.56,6.86,-0.26,0.60,-0.07
2024-12-25 18:29:37,772,774,785,859,818,-2.96,-7.55,6.37,-0.25,-0.30,0.06
2024-12-25 18:29:37,772,780,812,855,834,-3.30,-7.43,6.90,0.31,-0.14,0.06
2024-12-25 18:29:37,775,776,798,846,821,-1.97,-7.70,6.70,0.36,1.07,-0.20
2024-12-25 18:29:37,774,777,786,851,802,-2.83,-7.24,6.02,-0.05,0.31,-0.08
2024-12-25 18:29:37,776,773,785,860,837,-2.12,-8.66,5.92,-0.32,-1.10,0.41
2024-12-25 18:29:38,783,777,808,860,843,-3.10,-6.65,7.65,-0.15,0.03,-0.19
2024-12-25 18:29:38,774,773,789,838,801,-3.11,-6.83,5.95,-0.36,0.29,-0.06
2024-12-25 18:29:38,777,775,788,840,811,-2.40,-7.67,5.79,-1.04,-0.56,0.10
2024-12-25 18:29:38,772,786,826,846,831,-2.86,-7.53,5.94,0.43,-0.22,0.11
2024-12-25 18:29:38,770,778,799,834,808,-3.73,-8.04,6.15,0.71,1.07,-0.54
2024-12-25 18:29:39,769,776,789,847,807,-2.90,-7.97,4.88,-0.08,-0.17,0.04
2024-12-25 18:29:39,773,783,825,838,825,-3.51,-8.55,5.92,0.70,0.23,0.32
2024-12-25 18:29:39,773,776,802,831,812,-2.83,-8.49,6.00,0.14,0.99,-0.37
2024-12-25 18:29:39,771,773,788,831,798,-2.85,-7.99,4.45,0.24,0.11,0.08
2024-12-25 18:29:39,772,779,828,860,841,-3.41,-7.49,6.83,0.58,0.17,0.16
2024-12-25 18:29:39,769,770,802,842,817,-2.81,-7.60,6.81,1.21,1.07,-0.20
2024-12-25 18:29:40,770,771,788,844,802,-3.57,-6.89,7.11,-0.37,-0.15,-0.04
2024-12-25 18:29:40,777,778,813,845,830,-2.67,-8.33,6.44,-1.25,-0.79,0.07
2024-12-25 18:29:40,772,777,823,851,833,-3.00,-8.22,6.33,-0.14,0.34,-0.44
2024-12-25 18:29:40,769,771,792,833,806,-3.15,-7.15,6.47,0.95,1.15,-0.25
2024-12-25 18:29:40,774,768,789,864,846,-2.07,-7.12,5.52,-0.24,-1.64,0.84
2024-12-25 18:29:41,771,777,820,869,856,-3.20,-6.15,8.19,-0.34,-0.17,-0.36
2024-12-25 18:29:41,773,772,791,856,827,-2.28,-7.39,5.93,-0.40,0.55,-0.02
2024-12-25 18:29:41,777,776,806,854,833,-2.37,-8.29,5.30,-0.07,-1.22,0.73
2024-12-25 18:29:41,775,785,834,861,843,-2.59,-7.46,7.04,-0.35,0.05,-0.19
2024-12-25 18:29:41,771,778,791,846,807,-3.03,-7.10,7.02,-0.09,0.60,0.02
2024-12-25 18:29:41,773,782,824,852,837,-3.68,-7.84,6.26,0.13,0.02,0.06
2024-12-25 18:29:42,773,777,814,846,828,-2.22,-7.64,6.59,-0.01,0.29,-0.17
2024-12-25 18:29:42,770,774,789,836,815,-3.23,-7.48,6.71,-0.92,-0.66,0.13
2024-12-25 18:29:42,770,780,819,844,832,-2.81,-7.14,6.89,0.04,-0.13,-0.04
2024-12-25 18:29:42,771,773,795,832,811,-2.98,-8.06,5.64,0.85,1.16,-0.33
2024-12-25 18:29:42,771,774,794,835,823,-2.01,-8.19,5.01,-0.48,-1.27,0.59
2024-12-25 18:29:43,773,779,812,849,833,-3.14,-7.27,7.05,-0.08,0.04,-0.04
2024-12-25 18:29:43,768,773,791,824,800,-2.82,-6.91,6.64,0.22,0.71,-0.22
2024-12-25 18:29:43,770,772,787,853,834,-3.44,-8.10,6.83,-0.80,-0.89,0.11
2024-12-25 18:29:43,770,775,805,854,836,-3.62,-6.44,7.18,-0.44,-0.19,-0.25
2024-12-25 18:29:43,773,771,791,824,797,-3.18,-7.32,6.26,0.37,0.56,-0.07
2024-12-25 18:29:44,775,776,807,835,824,-2.13,-6.71,5.58,-0.18,-0.72,0.58
2024-12-25 18:29:44,768,778,810,845,833,-3.12,-7.14,7.01,-0.39,-0.03,-0.09
2024-12-25 18:29:44,773,774,792,823,795,-2.95,-7.31,6.84,0.41,0.77,-0.04
2024-12-25 18:29:44,771,775,789,829,809,-3.91,-8.26,6.49,-0.50,-0.87,0.02
2024-12-25 18:29:44,765,778,818,836,823,-3.36,-6.42,7.16,-0.15,-0.13,-0.08
2024-12-25 18:29:44,770,771,788,812,791,-3.06,-6.68,7.12,-0.17,0.27,-0.07
2024-12-25 18:29:45,771,771,787,826,797,-3.53,-6.91,6.25,0.10,0.03,0.07
2024-12-25 18:29:45,769,777,822,831,829,-2.82,-6.08,6.44,-0.24,-0.42,0.37
2024-12-25 18:29:45,770,775,810,834,826,-2.13,-7.73,6.83,-0.44,0.16,-0.12
2024-12-25 18:29:45,769,771,789,845,805,-2.89,-7.27,6.34,-0.15,0.26,-0.13
2024-12-25 18:29:45,772,771,790,855,835,-3.27,-8.16,5.64,-0.08,-1.21,0.64
2024-12-25 18:29:46,773,778,811,860,842,-2.78,-6.80,7.92,-0.73,-0.26,-0.35
2024-12-25 18:29:46,774,773,789,848,812,-3.12,-7.45,6.09,-0.16,0.40,-0.11
2024-12-25 18:29:46,776,775,796,843,820,-2.25,-8.51,5.37,-0.34,-1.24,0.46
2024-12-25 18:29:46,772,782,823,847,828,-3.20,-7.49,6.78,-0.06,0.09,-0.10
2024-12-25 18:29:46,773,777,789,832,803,-3.17,-7.41,6.65,-0.26,0.42,-0.19
2024-12-25 18:29:47,770,775,788,839,806,-3.09,-7.47,6.71,-0.09,-0.04,0.15
2024-12-25 18:29:47,773,780,825,839,827,-3.33,-6.62,7.25,0.66,-0.03,0.04
2024-12-25 18:29:47,769,775,800,830,805,-3.82,-6.13,7.13,0.77,0.61,-0.11
2024-12-25 18:29:47,767,771,791,835,809,-3.81,-6.60,7.54,-0.32,-0.25,-0.09
2024-12-25 18:29:47,768,783,836,839,829,-3.36,-7.18,6.20,-0.27,-0.30,-0.01
2024-12-25 18:29:47,766,782,824,827,814,-2.53,-7.26,6.36,0.78,0.43,-0.24
2024-12-25 18:29:48,768,779,804,820,810,-4.07,-7.22,7.15,-0.92,-0.62,0.01
2024-12-25 18:29:48,765,787,832,844,834,-2.84,-6.99,7.09,-0.29,-0.10,-0.05
2024-12-25 18:29:48,765,779,803,834,816,-3.49,-6.73,6.47,0.93,1.03,-0.17
2024-12-25 18:29:48,767,776,787,846,821,-3.54,-6.88,6.66,-0.37,-0.39,-0.11
2024-12-25 18:29:48,773,781,823,856,843,-3.42,-6.51,7.00,0.13,-0.01,-0.14
2024-12-25 18:29:49,770,778,797,830,810,-3.00,-6.90,6.58,-0.24,0.37,-0.20
2024-12-25 18:29:49,772,778,792,831,813,-3.33,-7.71,6.51,-0.25,-0.12,0.05
2024-12-25 18:29:49,765,779,811,846,839,-3.47,-6.85,6.89,0.21,-0.09,-0.01
2024-12-25 18:29:49,775,774,793,837,821,-3.21,-7.54,5.89,0.53,0.90,-0.39
2024-12-25 18:29:49,774,775,790,849,832,-3.00,-7.86,5.98,-0.41,-0.40,-0.01
2024-12-25 18:29:50,774,781,821,860,853,-3.54,-6.64,6.99,0.21,-0.04,-0.10
2024-12-25 18:29:50,774,777,793,837,825,-2.71,-7.54,6.26,0.14,0.74,-0.19
2024-12-25 18:29:50,773,776,790,834,822,-2.89,-7.77,6.28,-0.28,-0.23,0.05
2024-12-25 18:29:50,774,784,830,835,834,-3.17,-7.83,6.35,-0.10,-0.07,-0.07
2024-12-25 18:29:50,776,778,798,835,824,-3.11,-7.50,5.68,0.68,0.71,-0.36
2024-12-25 18:29:50,777,773,795,840,829,-2.17,-8.27,5.94,-0.36,-0.78,0.20
2024-12-25 18:29:51,776,774,808,840,833,-2.51,-8.30,5.90,-0.40,0.14,-0.26
2024-12-25 18:29:51,772,770,792,827,816,-2.73,-8.04,5.60,-0.13,-0.36,0.06
2024-12-25 18:29:51,776,775,805,829,823,-2.33,-7.89,6.58,-0.39,-0.04,-0.17
2024-12-25 18:29:51,772,769,787,835,810,-3.33,-7.70,6.34,-0.29,-0.23,0.03
2024-12-25 18:29:51,772,776,807,838,830,-2.82,-7.62,6.77,0.02,-0.19,-0.08
2024-12-25 18:29:52,775,769,789,833,811,-2.97,-6.69,6.42,0.47,0.54,0.25
2024-12-25 18:29:52,771,774,809,846,828,-3.06,-6.90,7.24,-0.17,0.11,-0.16
2024-12-25 18:29:52,774,771,790,828,800,-3.06,-7.59,6.17,-0.15,0.10,-0.07
2024-12-25 18:29:52,773,774,810,839,829,-2.05,-6.50,6.52,-0.46,-0.47,0.45
2024-12-25 18:29:52,772,769,794,823,805,-2.45,-8.25,5.81,0.82,0.93,-0.25
2024-12-25 18:29:53,773,771,792,819,806,-2.26,-8.06,5.97,-0.12,-0.30,0.18
2024-12-25 18:29:53,773,777,818,824,817,-2.78,-7.57,6.57,0.32,-0.07,0.02
2024-12-25 18:29:53,775,773,805,817,807,-2.43,-7.75,6.08,0.13,0.40,-0.14
2024-12-25 18:29:53,776,774,790,815,801,-3.10,-7.41,6.34,0.22,0.16,-0.10
2024-12-25 18:29:53,776,778,817,817,811,-2.30,-7.31,6.20,-0.45,-0.46,0.27
2024-12-25 18:29:53,776,780,821,824,817,-2.73,-7.83,6.27,-0.23,0.01,-0.05
2024-12-25 18:29:54,775,776,797,815,803,-2.74,-7.35,6.58,-0.04,0.15,-0.11
2024-12-25 18:29:54,774,779,821,814,811,-2.87,-7.36,6.41,-0.30,-0.28,0.21
2024-12-25 18:29:54,774,780,822,819,814,-2.94,-7.53,6.40,0.29,0.16,0.03
2024-12-25 18:29:54,772,774,791,827,807,-2.83,-7.12,6.99,0.16,0.32,-0.26
2024-12-25 18:29:54,776,772,790,863,849,-2.25,-7.85,6.58,-0.54,-0.44,0.10
2024-12-25 18:29:55,779,775,810,864,849,-2.39,-7.54,6.61,-0.28,-0.07,-0.04
2024-12-25 18:29:55,775,772,793,849,820,-2.48,-7.60,6.31,0.36,0.72,-0.22
2024-12-25 18:29:55,776,772,792,852,827,-2.62,-8.28,6.18,-0.42,-0.43,0.17
2024-12-25 18:29:55,775,781,821,846,831,-2.36,-7.50,6.85,0.18,0.07,0.04
2024-12-25 18:29:55,776,775,805,841,824,-2.57,-8.00,5.61,-0.11,0.22,-0.19
2024-12-25 18:29:56,774,773,791,838,810,-2.77,-7.47,5.93,0.12,0.07,0.01
2024-12-25 18:29:56,777,776,810,838,827,-2.09,-7.77,6.66,0.31,0.04,0.31
2024-12-25 18:29:56,771,774,809,837,825,-2.78,-7.03,6.78,-0.57,-0.10,-0.10
2024-12-25 18:29:56,773,772,792,835,812,-2.81,-7.82,6.12,-0.16,0.26,-0.14
2024-12-25 18:29:56,774,773,803,836,822,-2.49,-7.71,5.86,0.04,-0.47,0.52
2024-12-25 18:29:56,772,777,820,842,829,-2.79,-7.48,6.66,-0.08,0.07,-0.00
2024-12-25 18:29:57,772,774,802,832,813,-2.56,-7.48,6.16,0.08,0.33,-0.00
2024-12-25 18:29:57,769,774,793,823,805,-3.06,-7.77,6.34,-0.33,-0.19,0.05
2024-12-25 18:29:57,773,780,821,835,825,-3.23,-7.62,6.14,0.17,-0.14,0.08
2024-12-25 18:29:57,778,779,814,828,815,-3.01,-7.73,5.91,0.44,0.39,0.07
2024-12-25 18:29:57,772,774,791,825,805,-2.96,-7.32,6.53,-0.00,0.24,-0.19
2024-12-25 18:29:58,773,773,795,822,810,-3.00,-7.43,6.28,-0.43,-0.40,0.20
2024-12-25 18:29:58,777,785,831,825,814,-3.03,-7.69,6.15,-0.06,-0.20,-0.01
2024-12-25 18:29:58,777,780,808,820,807,-2.85,-8.12,5.64,0.13,0.61,-0.18
2024-12-25 18:29:58,775,776,792,818,801,-3.27,-7.84,6.19,-0.38,-0.25,-0.05
2024-12-25 18:29:58,778,779,818,821,812,-3.14,-7.97,5.98,0.11,-0.07,0.06
2024-12-25 18:29:59,780,779,814,821,811,-2.91,-7.49,5.99,-0.37,-0.01,-0.20
2024-12-25 18:29:59,777,775,789,808,798,-3.33,-7.43,6.06,0.25,0.26,-0.10
2024-12-25 18:29:59,778,777,796,822,818,-2.91,-7.47,5.58,-0.17,-0.77,0.34
2024-12-25 18:29:59,778,779,820,848,841,-2.97,-7.37,6.89,-0.27,-0.12,-0.16
2024-12-25 18:29:59,778,774,791,841,817,-2.83,-7.80,6.12,-0.24,0.37,-0.21
2024-12-25 18:29:59,779,772,791,853,835,-2.72,-8.05,5.80,-0.18,-0.37,-0.02
2024-12-25 18:30:00,783,776,805,861,849,-2.66,-7.53,6.42,0.24,-0.01,-0.01
2024-12-25 18:30:00,782,773,793,848,823,-2.81,-7.81,5.84,0.27,0.62,-0.15
2024-12-25 18:30:00,777,772,788,847,821,-2.88,-7.77,5.83,0.03,-0.02,-0.08
2024-12-25 18:30:00,777,773,799,844,825,-1.90,-6.66,5.83,-0.04,-0.23,0.32
2024-12-25 18:30:00,777,780,819,845,830,-2.66,-7.86,7.21,-0.08,0.20,0.07
2024-12-25 18:30:01,775,775,802,835,817,-2.68,-7.46,6.33,-0.22,0.06,-0.20
2024-12-25 18:30:01,773,778,812,837,823,-2.93,-8.02,5.36,-0.16,-0.24,-0.05
2024-12-25 18:30:01,773,781,826,840,826,-2.59,-8.33,5.82,-0.16,0.21,-0.12
2024-12-25 18:30:01,775,777,796,817,802,-3.11,-7.72,5.92,-0.04,0.32,-0.07
2024-12-25 18:30:01,776,779,804,829,819,-2.34,-8.47,5.69,-0.22,-0.30,0.18
2024-12-25 18:30:02,773,782,826,841,835,-2.66,-8.27,5.60,0.40,0.00,0.17
2024-12-25 18:30:02,775,777,806,832,818,-2.62,-8.36,5.96,0.20,0.47,0.02
2024-12-25 18:30:02,773,777,797,827,808,-3.87,-7.76,5.40,-0.15,0.06,0.08
2024-12-25 18:30:02,772,782,829,838,831,-3.49,-8.61,5.93,-0.10,-0.24,0.11
2024-12-25 18:30:02,771,781,821,835,822,-3.30,-7.78,5.15,-0.07,0.30,0.14
2024-12-25 18:30:02,770,776,804,831,811,-2.95,-7.39,5.94,0.19,-0.12,-0.12
2024-12-25 18:30:03,773,780,826,839,832,-3.59,-7.38,6.53,-0.35,-0.40,0.06
2024-12-25 18:30:03,771,782,829,844,833,-2.83,-7.95,7.13,0.15,-0.04,-0.14
2024-12-25 18:30:03,772,774,793,847,827,-3.32,-7.72,5.94,-0.26,0.04,-0.11
2024-12-25 18:30:03,772,776,810,846,835,-2.68,-8.72,5.31,-0.13,-0.44,0.29
2024-12-25 18:30:03,775,782,822,849,834,-3.53,-8.33,5.34,0.09,0.12,0.02
2024-12-25 18:30:04,773,773,793,846,822,-3.56,-7.53,5.60,0.75,0.67,0.04
2024-12-25 18:30:04,771,774,805,842,825,-3.73,-8.38,5.46,-0.50,-0.73,0.12
2024-12-25 18:30:04,775,780,825,843,827,-4.15,-7.59,6.80,-0.06,0.10,-0.12
2024-12-25 18:30:04,771,778,803,836,814,-3.08,-7.62,6.13,0.31,0.24,-0.22
2024-12-25 18:30:04,771,773,791,839,814,-3.59,-6.77,6.02,-0.01,-0.01,-0.05
2024-12-25 18:30:05,777,776,818,843,832,-3.36,-7.17,6.28,-0.10,-0.17,0.02
2024-12-25 18:30:05,775,775,813,839,822,-2.86,-7.33,6.11,0.11,0.23,-0.16
2024-12-25 18:30:05,772,777,789,838,812,-3.57,-6.74,6.96,-0.00,0.30,-0.05
2024-12-25 18:30:05,776,777,793,838,815,-2.84,-7.79,5.88,-0.50,-0.72,-0.02
2024-12-25 18:30:05,771,783,832,842,828,-3.34,-6.36,7.46,-0.22,0.16,-0.13
2024-12-25 18:30:05,774,777,797,836,815,-2.92,-7.37,6.78,0.10,0.21,-0.18
2024-12-25 18:30:06,772,775,789,836,813,-2.79,-7.79,5.99,-0.08,0.10,0.06
2024-12-25 18:30:06,776,777,807,839,825,-2.74,-7.29,5.87,-0.06,-0.62,0.45
2024-12-25 18:30:06,777,783,826,844,832,-2.38,-7.16,6.87,0.03,0.08,-0.17
2024-12-25 18:30:06,774,777,798,831,813,-3.70,-6.60,6.37,0.04,0.47,-0.16
2024-12-25 18:30:06,773,776,788,837,815,-3.42,-7.15,7.47,0.14,-0.14,0.14
2024-12-25 18:30:07,776,784,820,852,843,-2.91,-7.29,5.71,-0.55,-0.37,0.15
2024-12-25 18:30:07,772,782,822,848,841,-2.38,-7.60,6.91,-0.11,0.05,-0.22
2024-12-25 18:30:07,774,772,789,844,819,-3.55,-7.33,5.83,-0.09,0.28,0.04
2024-12-25 18:30:07,773,773,788,847,817,-3.42,-7.05,6.47,-0.07,-0.11,-0.20
2024-12-25 18:30:07,776,783,831,846,835,-2.48,-7.71,7.06,-0.22,-0.35,0.22
2024-12-25 18:30:08,775,783,827,847,839,-2.21,-7.71,5.35,-0.15,0.07,-0.16
2024-12-25 18:30:08,773,772,796,846,821,-2.50,-7.80,6.95,0.51,0.46,-0.15
2024-12-25 18:30:08,772,774,796,843,822,-2.69,-7.51,6.35,-0.55,-0.53,-0.01
2024-12-25 18:30:08,776,785,834,848,840,-2.34,-7.24,7.21,-0.03,-0.13,-0.05
2024-12-25 18:30:08,774,776,807,836,819,-2.48,-8.08,5.76,0.56,0.85,-0.19
2024-12-25 18:30:08,771,773,789,847,820,-2.78,-7.81,5.93,-0.03,0.04,0.03
2024-12-25 18:30:09,770,781,829,851,837,-2.54,-8.17,5.97,0.32,-0.03,0.07
2024-12-25 18:30:09,772,775,807,842,820,-2.57,-8.17,5.87,0.67,0.93,-0.04
2024-12-25 18:30:09,772,771,789,843,811,-3.15,-7.75,5.59,-0.08,-0.04,-0.05
2024-12-25 18:30:09,771,777,817,851,838,-3.35,-8.09,6.48,0.30,0.04,0.06
2024-12-25 18:30:09,774,774,811,848,830,-2.31,-7.95,5.90,-0.18,0.40,-0.11
2024-12-25 18:30:10,771,772,791,837,805,-3.16,-8.06,5.45,-0.24,-0.01,-0.07
2024-12-25 18:30:10,773,777,818,840,826,-2.92,-8.77,5.69,0.25,0.08,0.06
2024-12-25 18:30:10,771,776,817,839,821,-2.52,-7.98,6.00,-0.26,0.06,-0.12
2024-12-25 18:30:10,768,773,790,824,796,-3.16,-7.56,6.06,-0.23,-0.02,-0.02
2024-12-25 18:30:10,772,774,805,827,816,-2.18,-8.17,4.98,-0.36,-0.95,0.27
2024-12-25 18:30:11,766,777,815,837,823,-2.68,-7.96,6.00,-0.12,0.11,-0.06
2024-12-25 18:30:11,769,775,798,820,798,-3.23,-7.18,6.40,0.36,0.35,0.01
2024-12-25 18:30:11,775,781,822,831,820,-2.71,-8.55,5.60,-0.02,-0.08,0.01
2024-12-25 18:30:11,772,779,821,829,813,-2.05,-8.13,6.27,0.51,0.30,0.03
2024-12-25 18:30:11,770,773,801,818,797,-2.48,-7.36,7.15,-0.43,-0.04,-0.05
2024-12-25 18:30:11,771,780,826,822,809,-2.62,-7.36,5.73,-0.63,-0.53,0.30
2024-12-25 18:30:12,763,786,831,830,816,-3.30,-7.54,6.39,-0.29,0.09,-0.18
2024-12-25 18:30:12,769,779,795,818,798,-3.28,-7.60,6.09,0.04,0.52,-0.08
2024-12-25 18:30:12,771,777,793,829,813,-2.39,-7.65,6.36,-0.27,-0.59,0.07
2024-12-25 18:30:12,771,781,823,842,831,-2.69,-6.96,7.21,-0.10,-0.14,-0.20
2024-12-25 18:30:12,771,779,799,831,810,-2.17,-7.97,6.32,0.16,0.59,-0.15
2024-12-25 18:30:13,770,778,796,832,820,-2.75,-7.94,6.18,-0.65,-0.65,0.09
2024-12-25 18:30:13,772,783,827,840,831,-2.72,-7.59,6.27,0.28,0.02,0.00
2024-12-25 18:30:13,772,780,815,832,820,-2.51,-7.64,6.09,0.37,0.25,-0.08
2024-12-25 18:30:13,770,779,805,831,818,-2.75,-7.82,6.45,-0.32,-0.10,-0.06
2024-12-25 18:30:13,771,783,827,841,836,-2.52,-7.31,6.11,0.29,-0.08,0.07
2024-12-25 18:30:13,771,777,809,832,827,-2.86,-7.75,6.44,0.27,0.38,-0.27
2024-12-25 18:30:14,770,772,791,835,822,-2.30,-7.80,6.06,-0.12,-0.01,-0.05
2024-12-25 18:30:14,771,781,818,846,840,-2.62,-8.10,6.16,0.02,-0.08,0.08
2024-12-25 18:30:14,774,773,803,845,835,-1.81,-8.45,5.94,0.04,0.52,-0.19
2024-12-25 18:30:14,772,770,788,843,825,-2.21,-7.40,6.73,0.04,0.10,-0.01
2024-12-25 18:30:14,774,772,789,847,828,-2.26,-7.95,6.41,-0.61,-0.39,-0.05
2024-12-25 18:30:15,774,780,823,852,842,-2.61,-7.24,6.35,0.03,-0.16,-0.02
2024-12-25 18:30:15,775,774,796,839,812,-2.57,-8.16,5.90,0.41,0.98,-0.14
2024-12-25 18:30:15,775,772,786,846,813,-2.39,-8.03,6.16,0.06,0.02,0.00
2024-12-25 18:30:15,775,777,816,843,834,-1.78,-7.73,5.86,-0.26,-0.34,0.13
2024-12-25 18:30:15,775,776,821,842,830,-1.68,-8.03,6.39,-0.36,0.05,-0.15
2024-12-25 18:30:16,775,774,793,840,814,-2.44,-8.08,5.51,0.00,0.29,0.02
2024-12-25 18:30:16,772,772,805,835,817,-2.19,-7.60,5.98,-0.29,-0.49,0.28
2024-12-25 18:30:16,774,775,823,837,826,-2.88,-7.27,7.18,-0.58,-0.05,-0.13
2024-12-25 18:30:16,770,773,793,833,810,-2.56,-7.87,5.46,-0.22,0.27,-0.16
2024-12-25 18:30:16,772,775,795,843,827,-2.38,-8.29,5.63,-0.30,-0.71,0.19
2024-12-25 18:30:16,774,781,825,853,838,-2.62,-7.55,6.26,-0.06,-0.01,-0.06
2024-12-25 18:30:17,771,776,801,837,813,-2.61,-7.58,6.11,0.16,0.32,-0.06
2024-12-25 18:30:17,775,780,822,841,828,0.05,-7.07,3.79,0.24,-0.32,0.59
2024-12-25 18:30:17,773,777,817,841,826,-3.15,-7.24,7.00,-0.30,0.10,-0.07
2024-12-25 18:30:17,772,772,797,821,802,-3.41,-7.30,6.28,-0.02,0.16,0.03
2024-12-25 18:30:17,774,777,817,827,813,-2.25,-7.26,6.30,-0.95,-0.82,0.17
2024-12-25 18:30:18,772,780,821,827,816,-3.15,-7.26,6.66,-0.42,0.04,-0.02
2024-12-25 18:30:18,771,775,804,820,800,-3.14,-7.07,5.94,-0.22,0.17,-0.16
2024-12-25 18:30:18,773,774,805,832,820,-2.81,-7.72,6.37,-0.16,-0.23,0.09
2024-12-25 18:30:18,773,777,819,845,832,-2.73,-7.44,6.31,-0.07,-0.05,-0.06
2024-12-25 18:30:18,772,775,793,832,809,-2.47,-7.82,6.01,-0.07,0.66,-0.16
2024-12-25 18:30:19,771,773,787,836,812,-3.31,-7.69,5.45,-0.15,-0.14,0.08
2024-12-25 18:30:19,774,777,822,847,837,-3.36,-8.31,5.83,0.21,0.06,0.07
2024-12-25 18:30:19,774,774,810,834,819,-2.87,-8.13,5.51,0.58,0.65,-0.09
2024-12-25 18:30:19,770,775,800,830,813,-3.18,-7.46,6.22,-0.36,-0.60,0.01
2024-12-25 18:30:19,772,780,826,839,825,-3.18,-7.20,6.03,0.15,0.07,0.10
2024-12-25 18:30:19,773,774,803,827,809,-2.59,-7.59,6.20,0.63,0.61,-0.12
2024-12-25 18:30:20,773,772,793,824,805,-3.07,-7.47,6.48,-0.26,-0.36,0.01
2024-12-25 18:30:20,775,777,822,835,823,-3.11,-6.19,6.30,0.28,-0.07,0.25
2024-12-25 18:30:20,775,774,805,823,807,-2.52,-8.40,5.81,0.10,0.59,-0.17
2024-12-25 18:30:20,773,773,793,822,801,-3.27,-7.74,5.42,0.04,0.22,-0.00
2024-12-25 18:30:20,773,774,804,837,826,-2.66,-7.84,5.89,-0.37,-0.76,0.37
2024-12-25 18:30:21,774,778,821,844,832,-3.11,-7.88,6.20,-0.14,0.15,-0.07
2024-12-25 18:30:21,774,773,796,828,803,-3.38,-7.48,6.38,0.03,0.37,-0.07
2024-12-25 18:30:21,775,776,821,830,819,-2.72,-7.40,6.34,-0.45,-0.44,0.30
2024-12-25 18:30:21,775,774,817,826,815,-2.77,-8.03,5.82,-0.14,0.25,-0.13
2024-12-25 18:30:21,774,775,799,818,800,-2.99,-7.71,5.75,0.20,0.31,-0.06
2024-12-25 18:30:22,776,777,821,833,825,-2.48,-7.58,6.40,-0.64,-0.44,0.17
2024-12-25 18:30:22,772,778,822,839,827,-2.77,-8.09,5.41,-0.10,0.23,-0.06
2024-12-25 18:30:22,772,775,807,827,811,-4.20,-8.16,6.18,-0.06,-0.22,0.00
2024-12-25 18:30:22,771,778,831,849,835,-3.13,-6.78,6.47,-0.02,-0.13,-0.04
2024-12-25 18:30:22,773,773,807,819,801,-3.62,-7.38,5.72,0.05,0.26,-0.12
2024-12-25 18:30:22,772,775,806,818,807,-3.41,-7.76,6.03,-0.45,-0.41,-0.09
2024-12-25 18:30:23,772,780,830,832,822,-3.04,-7.58,5.76,-0.19,-0.09,0.03
2024-12-25 18:30:23,773,775,801,825,809,-3.03,-7.50,5.63,0.14,0.52,-0.12
2024-12-25 18:30:23,771,772,798,833,823,-3.08,-8.31,5.31,-0.39,-0.71,0.06
2024-12-25 18:30:23,774,777,825,843,832,-3.24,-8.01,5.77,-0.16,0.03,-0.11
2024-12-25 18:30:23,775,775,806,822,807,-3.89,-8.21,5.78,-0.42,-0.08,-0.13
2024-12-25 18:30:24,773,781,831,836,823,-3.15,-7.69,5.15,0.20,0.06,-0.05
2024-12-25 18:30:24,774,777,816,823,808,-3.26,-7.58,5.79,0.25,0.40,-0.18
2024-12-25 18:30:24,772,776,815,825,814,-2.55,-8.40,5.20,-0.01,-0.92,0.00
2024-12-25 18:30:24,772,779,825,833,822,-3.06,-7.85,6.34,-0.36,0.03,0.03
2024-12-25 18:30:24,773,776,805,820,805,-3.23,-7.72,5.80,-0.10,0.17,0.02
2024-12-25 18:30:25,770,779,835,824,817,-3.38,-8.06,5.67,0.59,0.10,-0.04
2024-12-25 18:30:25,770,777,825,818,810,-3.12,-7.66,6.70,-0.83,-0.06,-0.15
2024-12-25 18:30:25,772,774,799,820,802,-3.09,-7.97,5.38,-0.18,-0.10,-0.12
2024-12-25 18:30:25,774,774,812,831,821,-2.37,-7.98,4.93,-0.54,-0.92,0.30
2024-12-25 18:30:25,773,777,827,834,825,-2.93,-8.26,5.55,-0.04,0.14,-0.07
2024-12-25 18:30:25,775,772,795,818,798,-3.46,-7.35,6.08,0.35,0.21,0.02
2024-12-25 18:30:26,774,773,818,823,818,-2.97,-6.51,5.96,-0.07,-0.47,0.47
2024-12-25 18:30:26,773,775,814,822,815,-2.98,-7.87,6.59,-0.50,-0.19,-0.17
2024-12-25 18:30:26,773,766,800,810,800,-3.05,-7.73,5.80,-0.28,-0.06,-0.05
2024-12-25 18:30:26,770,779,826,818,811,-3.16,-7.47,5.93,-0.06,-0.06,-0.02
2024-12-25 18:30:26,773,774,808,809,800,-2.80,-7.70,5.74,0.12,0.36,-0.27
2024-12-25 18:30:27,776,780,826,810,804,-2.86,-7.91,5.47,-0.31,-0.29,0.35
2024-12-25 18:30:27,776,778,820,810,803,-2.95,-7.75,5.76,-0.10,-0.05,-0.10
2024-12-25 18:30:27,778,773,793,813,799,-2.55,-8.03,5.51,-0.06,-0.00,-0.14
2024-12-25 18:30:27,779,777,827,834,830,-3.13,-8.56,5.34,0.12,-0.22,-0.18
2024-12-25 18:30:27,778,774,812,823,811,-2.26,-7.98,6.16,0.92,0.72,-0.00
2024-12-25 18:30:28,774,773,798,815,802,-3.33,-8.10,5.61,-0.55,-0.17,-0.17
2024-12-25 18:30:28,775,775,820,823,820,-2.97,-7.32,5.93,0.20,0.10,0.01
2024-12-25 18:30:28,775,771,804,812,805,-2.53,-7.42,5.81,0.21,0.30,-0.09
2024-12-25 18:30:28,771,776,799,809,804,-3.16,-7.94,6.45,-0.08,-0.19,-0.07
2024-12-25 18:30:28,771,781,825,822,821,-2.46,-7.50,6.34,-0.26,-0.04,0.00
2024-12-25 18:30:28,776,776,807,809,802,-2.72,-7.53,6.27,-0.26,0.23,0.07
2024-12-25 18:30:29,777,778,825,817,820,-1.53,-7.74,6.03,-0.86,-0.88,0.12
2024-12-25 18:30:29,772,776,820,830,830,-2.89,-7.99,6.32,-0.61,0.08,-0.16
2024-12-25 18:30:29,774,774,797,817,809,-2.55,-8.02,5.13,-0.01,0.23,-0.03
2024-12-25 18:30:29,775,778,807,832,827,-2.32,-8.21,5.92,-0.39,-0.64,0.20
2024-12-25 18:30:29,772,778,827,842,829,-3.05,-7.96,5.72,0.06,0.13,-0.07
2024-12-25 18:30:30,772,778,802,827,813,-2.85,-8.27,5.45,-0.32,0.19,-0.21
2024-12-25 18:30:30,773,777,805,833,823,-2.85,-8.87,5.50,0.01,-0.74,-0.16
2024-12-25 18:30:30,769,775,823,842,832,-2.23,-8.18,6.16,-0.36,0.07,-0.12
2024-12-25 18:30:30,770,773,798,835,818,-2.85,-8.06,5.66,-0.07,0.27,-0.26
2024-12-25 18:30:30,770,773,799,846,833,-2.34,-8.62,5.45,-0.17,-1.06,0.12
2024-12-25 18:30:31,770,778,827,847,836,-2.23,-8.43,5.81,-0.52,-0.11,-0.04
2024-12-25 18:30:31,769,771,797,838,817,-2.12,-8.20,5.24,0.02,0.38,-0.09
2024-12-25 18:30:31,768,773,792,839,818,-2.28,-8.54,5.78,-0.01,-0.40,0.10
2024-12-25 18:30:31,771,775,823,844,828,-2.59,-7.70,5.71,0.18,0.03,-0.00
2024-12-25 18:30:31,773,772,800,834,814,-2.42,-7.95,5.65,0.27,0.46,-0.21
2024-12-25 18:30:31,771,768,790,826,800,-2.76,-7.71,5.98,0.13,0.15,-0.03
2024-12-25 18:30:32,770,773,815,833,820,-2.69,-8.22,5.58,0.24,-0.01,0.08
2024-12-25 18:30:32,772,772,814,830,816,-2.21,-7.97,5.86,-0.50,-0.04,-0.12
2024-12-25 18:30:32,774,771,793,823,801,-2.59,-8.36,5.28,-0.41,0.00,0.01
2024-12-25 18:30:32,773,775,823,828,815,-2.46,-8.76,5.24,0.25,0.10,0.13
2024-12-25 18:30:32,774,776,822,827,815,-1.88,-8.42,5.54,-0.21,0.16,-0.13
2024-12-25 18:30:33,773,773,794,811,794,-2.75,-8.18,5.42,-0.05,0.02,-0.12
2024-12-25 18:30:33,776,777,823,830,822,-1.32,-8.35,4.63,0.01,-0.17,0.21
2024-12-25 18:30:33,774,776,824,834,822,-2.49,-7.98,5.81,-0.37,-0.07,-0.18
2024-12-25 18:30:33,774,771,794,825,804,-3.15,-7.92,5.44,0.33,0.22,-0.03
2024-12-25 18:30:33,774,770,801,822,807,-2.54,-7.97,5.58,0.23,-0.05,0.20
2024-12-25 18:30:34,773,772,804,819,808,-3.01,-7.53,6.45,0.13,0.11,-0.07
2024-12-25 18:30:34,773,780,827,826,818,-2.38,-8.76,4.80,-0.15,-0.08,-0.07
2024-12-25 18:30:34,770,776,819,822,810,-1.86,-8.38,5.45,-0.17,0.22,-0.11
2024-12-25 18:30:34,771,773,797,821,807,-2.83,-8.68,5.59,-0.04,-0.21,-0.02
2024-12-25 18:30:34,773,775,816,826,819,-2.64,-7.72,6.03,-0.04,-0.05,-0.02
2024-12-25 18:30:34,772,773,803,814,801,-2.30,-8.22,5.56,0.29,0.39,-0.03
2024-12-25 18:30:35,774,775,808,812,810,-2.04,-8.10,5.37,-0.31,-0.38,0.18
2024-12-25 18:30:35,775,776,819,817,813,-2.20,-8.26,6.12,-0.11,0.09,-0.06
2024-12-25 18:30:35,773,773,801,811,799,-2.60,-8.07,6.13,-0.16,0.13,-0.03
2024-12-25 18:30:35,770,774,815,834,825,-2.94,-8.00,5.84,0.20,0.06,0.06
2024-12-25 18:30:35,769,771,812,824,813,-2.19,-8.24,5.83,-0.12,0.22,-0.12
2024-12-25 18:30:36,773,775,816,829,825,-1.91,-7.90,4.91,0.33,-0.78,0.30
2024-12-25 18:30:36,770,775,821,836,827,-2.52,-7.90,6.31,-0.20,0.06,0.00
2024-12-25 18:30:36,772,771,812,819,809,-3.19,-8.45,5.72,-0.44,-0.20,-0.06
2024-12-25 18:30:36,774,777,830,828,820,-2.43,-7.78,6.06,0.19,0.05,0.07
2024-12-25 18:30:36,774,775,809,819,808,-2.97,-7.69,6.23,0.32,0.40,-0.09
2024-12-25 18:30:37,770,774,792,822,806,-2.55,-7.39,6.43,-0.05,-0.00,-0.04
2024-12-25 18:30:37,771,780,829,834,829,-2.70,-7.98,5.71,0.00,-0.05,0.05
2024-12-25 18:30:37,771,776,817,824,817,-2.74,-8.07,5.89,0.67,0.48,0.06
2024-12-25 18:30:37,773,772,800,816,805,-2.89,-8.13,6.23,-0.22,0.06,-0.07
2024-12-25 18:30:37,771,780,828,831,826,-2.50,-7.93,5.90,0.35,0.03,0.07
2024-12-25 18:30:37,773,777,821,823,816,-2.69,-8.00,5.78,0.40,0.21,-0.18
2024-12-25 18:30:38,772,774,805,812,802,-2.85,-7.39,6.80,0.00,0.06,-0.05
2024-12-25 18:30:38,772,775,810,817,810,-2.35,-7.50,6.00,-0.16,-0.45,0.06
2024-12-25 18:30:38,772,781,831,823,817,-1.85,-7.99,6.62,-0.19,0.03,-0.03
2024-12-25 18:30:38,770,774,805,811,801,-2.22,-8.19,6.08,-0.17,0.22,-0.20
2024-12-25 18:30:38,771,772,797,821,807,-2.16,-7.83,6.26,0.05,0.04,-0.00
2024-12-25 18:30:39,772,778,824,841,835,-1.94,-8.70,6.32,-0.17,-0.08,0.06
2024-12-25 18:30:39,773,772,804,840,822,-2.66,-7.78,5.85,0.49,0.77,-0.04
2024-12-25 18:30:39,776,773,797,843,833,-1.52,-8.01,5.96,-0.46,-0.80,-0.14
2024-12-25 18:30:39,775,776,820,860,845,-2.27,-7.67,7.12,-0.01,-0.01,-0.01
2024-12-25 18:30:39,776,775,802,839,817,-2.67,-7.41,6.15,-0.19,0.28,-0.22
2024-12-25 18:30:40,774,778,819,850,836,-2.35,-8.13,6.38,-0.26,-0.27,0.09
2024-12-25 18:30:40,777,789,840,852,838,-2.09,-7.91,5.98,-0.16,0.05,-0.08
2024-12-25 18:30:40,774,775,805,834,811,-2.36,-8.05,6.03,-0.26,0.22,0.08
2024-12-25 18:30:40,772,774,800,838,814,-2.82,-7.85,6.75,-0.05,-0.04,0.01
2024-12-25 18:30:40,775,779,827,847,830,-1.99,-7.89,5.77,-0.43,-0.19,0.03
2024-12-25 18:30:40,775,776,812,835,813,-2.90,-8.15,5.35,0.59,0.85,-0.05
2024-12-25 18:30:41,776,776,802,831,809,-3.18,-8.27,5.78,-0.34,-0.39,-0.22
2024-12-25 18:30:41,776,786,834,853,836,-2.19,-7.74,5.55,0.24,-0.01,0.03
2024-12-25 18:30:41,775,782,814,837,817,-2.07,-8.93,5.58,-0.35,0.22,0.35
2024-12-25 18:30:41,773,779,809,836,816,-2.60,-8.45,4.02,-0.23,-0.23,0.16
2024-12-25 18:30:41,774,789,842,839,822,-2.10,-8.04,5.31,0.21,0.08,-0.10
2024-12-25 18:30:42,774,788,840,847,831,-2.20,-8.43,5.88,-0.38,0.23,-0.12
2024-12-25 18:30:42,779,786,823,860,858,-2.21,-8.52,5.01,0.27,0.90,0.08
2024-12-25 18:30:42,775,776,797,886,871,-2.51,-8.38,5.28,-0.17,0.14,-0.05
2024-12-25 18:30:42,780,777,818,882,880,-2.39,-8.90,4.76,0.09,0.09,-0.06
2024-12-25 18:30:42,780,769,798,883,886,-1.73,-8.75,5.34,0.17,0.41,0.10
2024-12-25 18:30:42,776,767,791,896,872,-2.12,-8.37,4.92,-0.16,-0.12,-0.18
2024-12-25 18:30:43,774,772,820,891,894,-1.84,-8.29,5.45,-0.12,-0.23,0.09
2024-12-25 18:30:43,774,773,819,878,878,-1.16,-8.69,4.97,-0.23,0.15,-0.16
2024-12-25 18:30:43,773,768,792,886,893,-2.17,-8.64,4.81,0.18,0.15,-0.03
2024-12-25 18:30:43,771,769,797,897,883,-1.87,-8.36,5.04,-0.55,-0.33,0.02
2024-12-25 18:30:43,773,772,814,891,882,-2.14,-8.53,5.37,0.01,0.05,-0.09
2024-12-25 18:30:44,771,766,792,874,886,-2.14,-8.78,4.60,0.13,0.22,0.09
2024-12-25 18:30:44,774,770,809,889,876,-1.84,-8.53,5.07,-0.43,-0.31,-0.03
2024-12-25 18:30:44,774,769,810,884,859,-1.71,-8.68,5.15,0.13,0.18,0.02
2024-12-25 18:30:44,773,767,788,874,882,-2.24,-8.51,5.15,0.21,0.21,-0.04
2024-12-25 18:30:44,776,770,803,907,909,-1.49,-8.46,5.74,-0.72,-0.38,0.12
2024-12-25 18:30:45,776,772,821,879,870,-1.71,-8.57,5.53,-0.11,0.03,-0.01
2024-12-25 18:30:45,773,769,792,885,882,-2.37,-8.64,4.93,-0.06,0.07,-0.03
2024-12-25 18:30:45,775,771,812,886,874,-1.70,-8.38,5.14,-0.26,-0.35,0.08
2024-12-25 18:30:45,771,771,816,878,877,-2.16,-8.25,5.78,0.06,0.06,0.02
2024-12-25 18:30:45,773,770,795,874,893,-2.38,-8.23,5.18,0.12,0.22,-0.01
2024-12-25 18:30:45,773,772,808,887,874,-2.52,-7.65,5.38,-0.23,-0.27,-0.03
2024-12-25 18:30:46,771,779,832,900,891,-2.28,-8.15,5.88,-0.08,-0.00,-0.03
2024-12-25 18:30:46,772,772,794,887,878,-2.13,-8.15,5.65,-0.11,0.07,-0.05
2024-12-25 18:30:46,775,776,804,886,892,-1.76,-8.16,5.64,-0.56,-0.36,-0.00
2024-12-25 18:30:46,774,776,823,889,879,-2.38,-8.24,5.40,-0.09,0.01,0.01
2024-12-25 18:30:46,774,770,794,898,867,-2.20,-8.20,5.39,0.00,0.07,-0.06
2024-12-25 18:30:47,776,772,801,880,868,-1.98,-7.98,5.31,-0.41,-0.38,0.03
2024-12-25 18:30:47,777,773,823,902,878,-2.32,-8.20,5.41,0.22,0.01,-0.00
2024-12-25 18:30:47,776,771,797,883,862,-2.21,-8.39,5.65,0.06,0.15,-0.22
2024-12-25 18:30:47,778,773,821,880,870,0.57,-8.59,6.13,-0.58,-0.36,-0.06
2024-12-25 18:30:47,778,771,817,882,875,-1.17,-8.11,5.94,0.33,0.38,0.03
2024-12-25 18:30:48,777,773,801,881,850,-2.24,-8.24,6.59,0.07,0.18,0.09
2024-12-25 18:30:48,777,774,826,876,868,-2.44,-7.93,5.40,0.02,-0.00,-0.03
2024-12-25 18:30:48,777,772,803,879,878,-2.64,-7.95,6.14,0.33,0.33,-0.09
2024-12-25 18:30:48,776,771,797,881,872,-2.33,-7.94,5.88,0.04,-0.11,0.17
2024-12-25 18:30:48,775,772,819,888,861,-3.20,-7.02,6.78,0.06,-0.03,0.00
2024-12-25 18:30:48,777,773,802,880,882,-2.37,-7.76,6.07,-0.14,-0.00,-0.14
2024-12-25 18:30:49,777,772,821,874,869,-2.48,-7.24,6.14,-0.30,-0.22,0.17
2024-12-25 18:30:49,776,774,822,889,884,-2.83,-7.40,6.43,0.05,-0.16,-0.03
2024-12-25 18:30:49,776,773,802,886,868,-2.34,-7.48,7.05,-0.05,0.12,-0.14
2024-12-25 18:30:49,774,774,795,875,882,-2.65,-7.51,6.00,0.06,0.10,0.06
2024-12-25 18:30:49,770,776,830,890,872,-2.62,-7.15,7.13,0.40,0.12,0.05
2024-12-25 18:30:50,776,773,808,882,864,-3.00,-7.01,6.66,0.13,0.25,-0.10
2024-12-25 18:30:50,774,769,791,896,878,-2.63,-7.02,6.68,0.06,0.05,-0.03
2024-12-25 18:30:50,779,772,808,891,874,-2.35,-7.50,7.08,-0.46,-0.17,0.23
2024-12-25 18:30:50,780,773,816,880,873,-2.45,-7.50,6.61,-0.10,0.05,-0.05
2024-12-25 18:30:50,780,771,793,888,861,-3.00,-7.47,6.57,0.15,0.04,-0.06
2024-12-25 18:30:51,778,772,799,892,882,-3.06,-7.18,7.13,-0.18,-0.04,0.00
2024-12-25 18:30:51,773,783,839,878,868,-2.33,-7.00,6.61,0.01,-0.00,0.00
2024-12-25 18:30:51,775,774,803,890,877,-2.20,-7.51,6.44,0.20,0.33,-0.22
2024-12-25 18:30:51,774,772,795,886,880,-2.83,-7.49,6.72,0.11,0.04,0.08
2024-12-25 18:30:51,776,778,838,877,868,-2.19,-7.46,6.86,0.01,0.01,-0.04
2024-12-25 18:30:51,776,774,816,905,860,-3.08,-7.31,6.55,0.35,0.53,-0.19
2024-12-25 18:30:52,774,771,792,891,876,-2.57,-7.24,6.57,0.11,0.03,-0.06
2024-12-25 18:30:52,774,777,828,887,864,-2.89,-7.98,6.90,0.14,0.03,0.08
2024-12-25 18:30:52,778,776,824,886,865,-2.48,-7.33,6.50,0.02,0.22,-0.01
2024-12-25 18:30:52,775,772,799,881,872,-2.62,-7.48,6.86,-0.05,-0.08,0.02
2024-12-25 18:30:52,775,783,843,891,850,-3.12,-7.30,6.49,0.26,0.16,0.10
2024-12-25 18:30:53,776,781,833,889,866,-2.57,-7.57,6.73,-0.02,0.13,-0.10
2024-12-25 18:30:53,775,776,800,897,872,-2.81,-7.62,6.46,-0.06,0.08,0.05
2024-12-25 18:30:53,774,783,839,877,864,-2.90,-7.99,6.49,-0.37,-0.24,0.11
2024-12-25 18:30:53,770,786,838,879,855,-3.24,-7.15,6.51,0.00,-0.03,-0.12
2024-12-25 18:30:53,773,777,802,890,894,-2.83,-7.49,6.87,-0.32,-0.14,0.02
2024-12-25 18:30:53,775,783,840,879,848,-2.69,-7.31,6.19,0.28,0.07,0.04
2024-12-25 18:30:54,772,782,826,891,859,-2.68,-7.75,6.57,0.28,0.33,-0.15
2024-12-25 18:30:54,773,778,825,894,872,-2.46,-7.52,6.49,-0.76,-0.70,0.15
2024-12-25 18:30:54,766,780,837,878,848,-2.87,-7.32,6.58,-0.15,0.06,0.04
2024-12-25 18:30:54,767,775,804,878,853,-2.78,-7.75,6.35,-0.10,0.14,-0.06
2024-12-25 18:30:54,770,777,811,886,877,-2.89,-7.47,6.49,-0.22,-0.43,0.14
2024-12-25 18:30:55,767,778,829,869,878,-2.67,-7.65,6.38,0.03,0.11,-0.05
2024-12-25 18:30:55,770,773,798,886,868,-2.75,-7.37,6.88,-0.11,-0.01,-0.13
2024-12-25 18:30:55,766,777,831,863,849,-2.85,-8.49,6.18,-0.21,-0.05,-0.05
2024-12-25 18:30:55,763,774,832,902,877,-2.65,-7.20,6.67,-0.05,0.10,0.00
2024-12-25 18:30:55,772,768,797,892,864,-3.03,-7.44,6.53,-0.06,0.05,-0.12
2024-12-25 18:30:56,773,775,832,882,867,-2.67,-7.25,6.70,-0.62,-0.48,0.07
2024-12-25 18:30:56,769,777,837,889,854,-2.66,-7.51,6.53,-0.14,0.00,-0.01
2024-12-25 18:30:56,774,772,799,886,865,-2.63,-7.41,6.41,0.00,0.05,-0.09
2024-12-25 18:30:56,773,775,818,882,876,-2.61,-7.37,6.61,-0.47,-0.52,0.03
2024-12-25 18:30:56,777,784,841,877,858,-2.50,-7.50,6.56,0.16,0.27,0.01
2024-12-25 18:30:56,774,776,808,884,869,-2.79,-7.08,7.04,0.12,0.13,-0.11
2024-12-25 18:30:57,772,774,800,891,866,-3.08,-7.14,6.72,-0.10,-0.17,0.05
2024-12-25 18:30:57,775,781,834,886,853,-2.22,-7.29,6.63,0.09,0.14,0.08
2024-12-25 18:30:57,776,772,808,871,876,-2.67,-7.24,6.92,0.24,0.32,-0.14
