Timestamp,Flex1,Flex2,Flex3,Flex4,Flex5,AccelX,AccelY,AccelZ,GyroX,GyroY,GyroZ
2024-12-25 18:23:48,780,783,786,770,770,-4.71,-0.59,11.03,-0.26,-0.13,-0.14
2024-12-25 18:23:48,781,787,791,773,773,-2.78,-0.17,8.98,-0.03,0.65,0.37
2024-12-25 18:23:48,779,788,791,772,770,-3.65,0.23,10.14,0.06,-0.56,-0.02
2024-12-25 18:23:48,786,792,793,775,773,-3.40,-0.81,10.45,-0.40,0.01,-0.59
2024-12-25 18:23:48,787,792,794,776,774,-4.08,-0.93,9.10,0.18,0.03,0.12
2024-12-25 18:23:48,783,786,789,773,773,-3.72,1.20,10.14,0.61,-0.21,0.24
2024-12-25 18:23:48,780,781,788,772,772,-3.58,1.83,9.78,0.12,-0.14,0.09
2024-12-25 18:23:48,781,780,789,772,772,-3.90,1.76,9.44,-0.78,-0.07,0.19
2024-12-25 18:23:48,780,780,787,771,770,-2.81,0.12,9.45,-0.05,0.48,-0.16
2024-12-25 18:23:48,780,781,786,771,771,-3.74,1.02,9.75,-0.09,-0.07,-0.03
2024-12-25 18:23:48,782,780,788,771,770,-3.85,0.93,9.71,-0.14,0.45,-0.19
2024-12-25 18:23:48,785,779,788,772,770,-4.04,0.70,9.79,-0.25,0.06,0.01
2024-12-25 18:23:48,788,782,790,771,770,-4.19,0.41,9.31,-0.08,-0.04,-0.04
2024-12-25 18:23:48,788,782,791,773,770,-3.70,0.58,9.92,-0.01,0.01,-0.02
2024-12-25 18:23:48,785,784,791,773,771,-3.70,0.43,9.75,-0.12,-0.08,0.03
2024-12-25 18:23:48,787,784,791,774,770,-3.68,0.32,9.62,-0.11,0.03,-0.01
2024-12-25 18:23:48,789,784,795,775,771,-3.75,0.36,9.77,-0.07,0.09,-0.03
2024-12-25 18:23:48,786,786,796,776,770,-3.76,0.26,9.70,-0.02,-0.02,-0.02
2024-12-25 18:23:48,788,787,798,775,771,-3.51,0.38,9.86,-0.03,-0.04,-0.01
2024-12-25 18:23:48,786,787,798,776,772,-3.42,0.19,9.70,-0.09,-0.01,0.01
2024-12-25 18:23:48,788,788,798,775,771,-3.48,0.34,9.96,-0.06,0.06,-0.00
2024-12-25 18:23:48,787,788,799,777,772,-3.33,0.17,9.90,-0.12,0.11,0.03
2024-12-25 18:23:48,787,787,798,777,771,-3.48,0.15,9.61,-0.05,0.08,-0.04
2024-12-25 18:23:48,787,790,798,775,771,-3.23,0.25,9.92,-0.02,-0.05,-0.03
2024-12-25 18:23:48,789,790,798,778,773,-3.36,0.26,9.80,-0.05,0.04,-0.02
2024-12-25 18:23:48,788,793,799,778,771,-3.26,0.24,9.89,-0.01,0.01,-0.03
2024-12-25 18:23:48,790,791,801,778,774,-3.21,0.31,9.99,-0.06,0.03,-0.01
2024-12-25 18:23:48,787,793,804,779,774,-3.29,0.32,9.89,-0.02,0.02,-0.02
2024-12-25 18:23:48,786,791,801,777,770,-3.19,0.36,9.93,-0.05,0.02,-0.02
2024-12-25 18:23:48,786,791,804,777,772,-3.25,0.33,9.90,-0.04,0.02,-0.01
2024-12-25 18:23:48,790,790,803,778,771,-3.28,0.36,9.90,-0.02,0.01,-0.02
2024-12-25 18:23:48,788,791,805,780,772,-3.22,0.34,9.98,-0.04,0.04,-0.01
2024-12-25 18:23:48,790,790,803,778,772,-3.34,0.37,9.88,-0.07,0.03,-0.01
2024-12-25 18:23:48,787,791,805,779,773,-3.29,0.33,9.96,0.00,0.03,-0.00
2024-12-25 18:23:48,787,790,804,778,772,-3.41,0.23,9.81,-0.06,0.03,-0.01
2024-12-25 18:23:48,787,792,803,778,772,-3.25,0.27,9.96,-0.03,0.04,0.00
2024-12-25 18:23:48,789,791,804,778,773,-3.35,0.24,9.86,-0.05,0.01,-0.03
2024-12-25 18:23:48,787,791,805,779,772,-3.36,0.26,9.82,-0.03,-0.01,-0.02
2024-12-25 18:23:48,787,791,804,779,773,-3.22,0.23,9.90,-0.05,0.04,-0.01
2024-12-25 18:23:48,789,791,804,778,772,-3.26,0.11,9.94,-0.06,0.03,-0.01
2024-12-25 18:23:48,788,791,804,779,772,-3.21,0.37,9.91,-0.05,0.01,0.01
2024-12-25 18:23:48,786,791,805,779,771,-3.25,0.19,9.81,-0.04,0.01,-0.02
2024-12-25 18:23:48,787,791,804,779,771,-3.30,0.28,9.93,-0.06,0.04,-0.01
2024-12-25 18:23:48,786,791,803,777,771,-3.23,0.28,9.96,-0.02,0.00,-0.02
2024-12-25 18:23:48,788,792,802,779,771,-3.28,0.13,9.78,-0.04,0.01,0.01
2024-12-25 18:23:48,788,791,804,779,772,-3.38,0.27,9.93,-0.04,0.03,-0.01
2024-12-25 18:23:48,790,790,800,778,772,-3.11,0.14,9.77,0.18,0.02,0.02
2024-12-25 18:23:48,786,786,793,776,770,-3.03,0.74,9.95,0.28,0.06,0.06
2024-12-25 18:23:48,777,784,790,771,771,-3.15,1.05,9.75,0.13,-0.00,0.11
2024-12-25 18:23:48,776,783,788,773,772,-3.03,1.36,9.98,-0.11,0.00,-0.04
2024-12-25 18:23:48,777,785,792,773,771,-3.01,0.68,9.94,-0.72,-0.04,-0.11
2024-12-25 18:23:48,777,786,792,772,769,-2.85,0.13,10.08,-0.15,0.08,-0.09
2024-12-25 18:23:48,780,786,795,774,771,-2.94,-0.15,10.05,-0.42,-0.05,-0.09
2024-12-25 18:23:48,780,787,796,774,770,-3.06,-0.29,10.22,-0.06,0.08,-0.08
2024-12-25 18:23:48,782,788,801,774,771,-3.11,-0.48,10.06,-0.11,0.08,0.01
2024-12-25 18:23:48,783,788,799,774,770,-3.24,-0.74,9.85,-0.03,0.07,-0.04
2024-12-25 18:23:48,783,788,800,775,771,-3.36,-0.53,10.02,-0.07,0.05,0.01
2024-12-25 18:23:48,784,788,796,774,770,-3.37,-0.71,9.62,-0.03,0.07,0.00
2024-12-25 18:23:48,783,788,796,775,771,-3.22,-0.65,10.03,-0.03,0.01,-0.01
2024-12-25 18:23:48,784,788,797,775,771,-3.36,-0.66,9.89,-0.08,0.04,0.02
2024-12-25 18:23:48,783,787,798,773,769,-3.31,-0.66,10.05,-0.20,0.02,-0.02
2024-12-25 18:23:49,783,786,798,774,771,-3.64,-1.12,9.82,-0.21,0.03,-0.12
2024-12-25 18:23:49,784,792,812,777,770,-4.08,-1.66,9.44,-1.23,-0.46,-0.28
2024-12-25 18:23:49,785,797,883,805,770,-1.49,-3.63,9.33,-2.07,-0.05,0.38
2024-12-25 18:23:49,784,797,927,833,764,-3.68,-6.61,6.83,-0.81,0.47,0.44
2024-12-25 18:23:49,777,808,923,827,758,-3.94,-7.01,6.36,-0.35,0.35,0.18
2024-12-25 18:23:50,777,836,918,824,758,-4.35,-6.51,5.36,-0.28,0.19,0.16
2024-12-25 18:23:50,774,838,918,822,757,-5.04,-7.03,5.09,-0.08,0.08,-0.08
2024-12-25 18:23:50,774,836,920,825,757,-5.06,-7.10,6.05,0.00,0.04,0.02
2024-12-25 18:23:50,775,852,917,827,759,-4.84,-6.79,5.73,-0.44,-0.23,-0.17
2024-12-25 18:23:50,777,861,922,825,757,-4.44,-7.29,5.22,-0.50,-0.41,-0.15
2024-12-25 18:23:51,776,876,919,814,757,-4.25,-7.08,5.23,0.19,-0.33,-0.12
2024-12-25 18:23:51,775,869,918,815,757,-3.85,-7.40,5.29,-0.08,0.24,-0.08
2024-12-25 18:23:51,773,862,930,833,762,-4.76,-7.82,5.58,-0.37,0.09,0.24
2024-12-25 18:23:51,773,855,936,847,773,-6.12,-8.53,1.77,0.47,-6.61,-2.36
2024-12-25 18:23:51,779,844,934,845,767,6.29,-9.69,0.44,-0.17,-4.79,0.51
2024-12-25 18:23:51,779,837,934,842,765,5.55,-8.62,1.41,0.95,-1.65,0.55
2024-12-25 18:23:52,777,835,935,841,764,4.32,-8.69,0.32,-0.19,-1.19,0.07
2024-12-25 18:23:52,777,835,933,839,763,4.85,-9.43,-0.63,-0.38,-0.49,0.14
2024-12-25 18:23:52,776,835,934,840,762,3.36,-8.57,-1.77,-0.26,-0.06,-0.05
2024-12-25 18:23:52,778,862,932,839,761,3.22,-9.11,-2.94,-0.47,-0.29,0.03
2024-12-25 18:23:52,779,896,932,836,766,3.04,-9.09,-2.67,-0.23,-0.22,0.15
2024-12-25 18:23:53,779,898,934,838,781,3.07,-8.97,-3.02,0.33,0.14,-0.07
2024-12-25 18:23:53,778,887,935,842,779,3.21,-8.88,-1.90,-0.04,0.17,-0.01
2024-12-25 18:23:53,768,857,935,834,759,3.28,-8.84,-2.37,0.05,0.29,-0.16
2024-12-25 18:23:53,769,849,934,833,759,3.56,-8.98,-2.60,0.07,-0.02,-0.11
2024-12-25 18:23:53,767,846,934,832,757,3.68,-8.83,-2.17,-0.10,-0.01,-0.10
2024-12-25 18:23:54,769,862,936,834,758,3.62,-8.77,-2.48,-0.09,-0.01,0.04
2024-12-25 18:23:54,773,860,933,832,760,3.51,-8.89,-2.74,0.04,-0.03,0.02
2024-12-25 18:23:54,770,857,933,833,759,3.58,-8.78,-2.41,-0.03,0.02,-0.03
2024-12-25 18:23:54,773,856,935,832,759,3.66,-8.94,-2.39,0.03,-0.02,0.02
2024-12-25 18:23:54,770,851,932,832,759,3.44,-8.92,-2.38,-0.05,0.02,-0.01
2024-12-25 18:23:54,770,851,933,831,759,3.53,-8.85,-2.43,-0.11,-0.06,-0.03
2024-12-25 18:23:55,771,851,933,830,759,3.43,-8.86,-2.47,-0.04,0.02,0.00
2024-12-25 18:23:55,771,849,934,832,759,3.26,-8.91,-2.61,-0.04,0.01,-0.01
2024-12-25 18:23:55,772,846,936,832,759,3.63,-8.82,-2.39,-0.09,0.00,-0.03
2024-12-25 18:23:55,771,847,932,832,758,3.52,-8.80,-2.70,-0.06,-0.01,-0.01
2024-12-25 18:23:55,773,846,933,834,759,3.38,-8.79,-2.66,-0.01,0.06,0.00
2024-12-25 18:23:56,772,846,932,830,758,3.37,-8.87,-2.74,-0.03,0.02,-0.02
2024-12-25 18:23:56,773,845,934,831,759,3.50,-8.82,-2.68,-0.05,-0.02,-0.01
2024-12-25 18:23:56,772,846,934,831,757,3.45,-8.73,-2.60,-0.04,0.05,-0.02
2024-12-25 18:23:56,771,846,932,833,759,3.50,-8.75,-2.86,-0.05,-0.03,-0.01
2024-12-25 18:23:56,772,846,932,832,758,3.40,-8.77,-2.72,-0.04,0.05,0.01
2024-12-25 18:23:57,774,861,931,831,759,3.41,-8.71,-2.76,-0.15,0.10,-0.03
2024-12-25 18:23:57,772,857,935,831,760,3.49,-8.75,-2.79,0.00,0.07,-0.01
2024-12-25 18:23:57,772,857,931,829,760,3.43,-8.75,-2.86,-0.02,0.03,0.01
2024-12-25 18:23:57,771,858,932,829,760,3.64,-8.64,-2.47,-0.07,0.14,-0.05
2024-12-25 18:23:57,773,856,930,831,760,2.73,-8.75,-3.32,-0.22,0.06,0.03
2024-12-25 18:23:57,771,856,931,831,762,3.68,-8.66,-2.99,-0.02,0.10,0.01
2024-12-25 18:23:58,772,858,931,832,765,3.21,-8.86,-2.89,0.14,0.29,0.02
2024-12-25 18:23:58,772,881,919,821,763,3.80,-9.10,-2.35,0.62,-0.07,-0.05
2024-12-25 18:23:58,772,863,916,811,760,3.73,-8.95,-1.41,0.21,-0.17,-0.02
2024-12-25 18:23:58,769,839,914,818,759,3.60,-9.31,-1.15,0.51,0.12,-0.07
2024-12-25 18:23:58,764,823,907,812,755,3.62,-9.31,-0.07,0.56,-0.08,0.08
2024-12-25 18:23:59,760,804,905,815,753,3.55,-9.43,0.49,0.15,-0.10,0.00
2024-12-25 18:23:59,758,788,898,819,750,3.64,-9.48,0.92,-0.00,-0.05,-0.03
2024-12-25 18:23:59,759,825,888,819,751,3.73,-9.81,0.26,-0.14,0.13,-0.08
2024-12-25 18:23:59,765,875,918,863,769,3.72,-9.34,0.18,-0.76,0.39,-0.00
2024-12-25 18:23:59,765,910,912,862,775,3.86,-8.90,-1.18,-0.95,0.17,-0.09
2024-12-25 18:24:00,769,897,909,851,766,4.44,-8.70,-2.15,-0.01,-0.02,-0.07
2024-12-25 18:24:00,772,899,929,864,765,4.07,-8.62,-1.94,-0.19,0.03,0.02
2024-12-25 18:24:00,776,900,919,873,764,4.18,-8.68,-1.76,-0.05,0.01,-0.02
2024-12-25 18:24:00,773,906,910,864,763,4.09,-8.73,-2.04,0.08,0.07,0.01
2024-12-25 18:24:00,775,904,924,877,764,4.02,-8.82,-2.09,-0.01,0.07,0.03
2024-12-25 18:24:00,775,891,917,854,763,4.33,-8.77,-1.87,-0.06,0.06,-0.03
2024-12-25 18:24:01,775,894,918,865,764,4.36,-8.77,-2.01,-0.07,0.04,-0.04
2024-12-25 18:24:01,777,898,926,852,764,4.20,-8.80,-2.07,-0.03,0.05,-0.06
2024-12-25 18:24:01,775,886,910,856,764,4.26,-8.66,-1.86,0.01,0.00,-0.02
2024-12-25 18:24:01,776,899,924,872,764,4.50,-8.80,-1.84,-0.04,0.06,-0.06
2024-12-25 18:24:01,774,888,913,859,763,4.28,-8.68,-1.78,-0.04,-0.01,-0.05
2024-12-25 18:24:02,774,888,922,881,763,4.50,-8.63,-2.11,-0.07,0.04,-0.05
2024-12-25 18:24:02,775,895,918,852,765,4.56,-8.56,-2.08,-0.08,-0.05,-0.01
2024-12-25 18:24:02,775,897,919,870,764,4.26,-8.55,-2.15,-0.05,-0.03,-0.01
2024-12-25 18:24:02,777,889,909,860,765,4.38,-8.56,-2.18,-0.10,0.03,-0.08
2024-12-25 18:24:02,777,899,913,864,764,4.70,-8.45,-2.20,-0.09,0.05,-0.03
2024-12-25 18:24:03,776,888,912,858,766,4.71,-8.48,-2.35,-0.06,-0.02,0.00
2024-12-25 18:24:03,776,896,912,860,764,4.43,-8.54,-2.34,-0.03,-0.01,-0.02
2024-12-25 18:24:03,777,901,921,848,764,4.53,-8.48,-2.20,-0.01,0.07,0.02
2024-12-25 18:24:03,779,889,918,856,763,4.77,-8.51,-2.31,-0.01,-0.02,-0.06
2024-12-25 18:24:03,778,897,915,856,763,4.64,-8.48,-2.24,-0.02,0.00,0.00
2024-12-25 18:24:03,776,894,907,852,761,4.69,-8.45,-2.08,-0.03,-0.03,-0.04
2024-12-25 18:24:04,777,910,903,850,761,4.58,-8.50,-2.18,-0.00,0.02,-0.05
2024-12-25 18:24:04,774,891,913,860,761,4.78,-8.34,-1.98,-0.04,0.14,-0.12
2024-12-25 18:24:04,770,899,921,864,759,4.88,-8.43,-1.95,0.00,0.03,0.02
2024-12-25 18:24:04,772,893,918,858,760,4.91,-8.39,-1.95,-0.07,0.05,0.01
2024-12-25 18:24:04,770,882,905,845,760,4.98,-8.36,-1.90,-0.04,0.01,0.00
2024-12-25 18:24:05,771,896,920,856,760,4.80,-8.51,-2.06,-0.06,-0.01,-0.02
2024-12-25 18:24:05,773,888,914,850,759,4.84,-8.37,-2.00,-0.03,0.03,-0.04
2024-12-25 18:24:05,771,895,922,864,762,4.93,-8.39,-1.91,-0.04,0.04,-0.01
2024-12-25 18:24:05,772,881,917,846,761,4.89,-8.41,-1.97,-0.07,-0.01,-0.00
2024-12-25 18:24:05,770,896,920,859,760,4.96,-8.34,-2.03,-0.05,-0.00,-0.01
2024-12-25 18:24:06,773,896,913,851,760,4.91,-8.38,-2.05,-0.06,0.00,-0.01
2024-12-25 18:24:06,773,890,912,861,760,4.77,-8.41,-2.03,-0.03,0.03,-0.02
2024-12-25 18:24:06,772,886,921,867,760,4.92,-8.36,-2.14,-0.03,0.01,-0.02
2024-12-25 18:24:06,772,905,913,862,761,4.89,-8.39,-2.06,-0.03,0.06,-0.00
2024-12-25 18:24:06,774,897,906,866,760,4.88,-8.44,-2.05,-0.04,0.00,-0.02
2024-12-25 18:24:06,773,902,924,853,760,4.89,-8.36,-2.04,-0.05,0.03,-0.01
2024-12-25 18:24:07,773,901,934,872,762,4.89,-8.36,-2.04,-0.03,0.04,-0.01
2024-12-25 18:24:07,773,889,913,851,760,4.76,-8.43,-2.05,-0.04,0.03,-0.01
2024-12-25 18:24:07,773,890,914,855,760,4.92,-8.40,-2.05,-0.04,0.02,-0.04
2024-12-25 18:24:07,771,880,911,858,761,4.78,-8.40,-2.07,-0.04,0.04,0.00
2024-12-25 18:24:07,774,899,901,845,761,5.04,-8.39,-1.97,-0.04,0.02,-0.06
2024-12-25 18:24:08,772,901,932,862,761,4.84,-8.36,-2.10,-0.06,0.00,-0.00
2024-12-25 18:24:08,772,895,908,845,761,4.93,-8.37,-1.92,-0.04,0.04,-0.02
2024-12-25 18:24:08,771,891,922,851,761,4.88,-8.33,-1.98,-0.03,0.03,-0.00
2024-12-25 18:24:08,774,885,911,848,762,5.14,-8.37,-2.09,-0.05,0.04,-0.01
2024-12-25 18:24:08,772,891,916,855,761,4.85,-8.40,-2.13,-0.04,0.03,-0.01
2024-12-25 18:24:09,774,892,905,853,760,4.98,-8.37,-2.09,-0.04,0.00,-0.02
2024-12-25 18:24:09,773,894,923,847,760,4.93,-8.37,-1.99,-0.05,0.00,-0.00
2024-12-25 18:24:09,772,895,903,852,760,4.81,-8.42,-2.15,0.02,-0.02,0.00
2024-12-25 18:24:09,774,891,919,856,760,4.82,-8.36,-1.88,-0.10,0.04,0.00
2024-12-25 18:24:09,774,882,905,867,762,4.78,-8.44,-2.19,-0.04,-0.04,-0.01
2024-12-25 18:24:09,773,888,912,853,761,4.88,-8.41,-2.04,-0.04,-0.04,-0.01
2024-12-25 18:24:10,771,890,920,851,761,4.84,-8.38,-1.95,-0.05,-0.02,-0.02
2024-12-25 18:24:10,772,884,913,852,761,4.68,-8.49,-2.18,-0.04,-0.00,-0.01
2024-12-25 18:24:10,772,899,919,860,761,4.78,-8.49,-2.39,-0.08,0.04,-0.03
2024-12-25 18:24:10,773,894,908,850,762,4.91,-8.59,-2.43,-0.05,0.07,-0.03
2024-12-25 18:24:10,771,900,912,856,760,4.80,-8.31,-2.10,-0.06,0.01,-0.03
2024-12-25 18:24:11,773,898,920,852,760,4.60,-8.34,-1.87,0.06,-0.02,-0.04
2024-12-25 18:24:11,774,887,908,848,761,4.97,-8.35,-2.50,-0.10,0.11,0.04
2024-12-25 18:24:11,772,904,928,864,761,4.94,-8.38,-2.08,-0.03,0.02,0.01
2024-12-25 18:24:11,772,887,906,850,761,4.84,-8.40,-2.15,-0.03,0.01,-0.00
2024-12-25 18:24:11,774,884,905,846,760,4.68,-8.37,-2.04,-0.04,0.00,0.01
2024-12-25 18:24:12,774,891,918,847,760,4.79,-8.41,-2.24,-0.10,-0.01,-0.04
2024-12-25 18:24:12,773,891,915,856,760,4.80,-8.40,-2.17,-0.06,0.08,-0.01
2024-12-25 18:24:12,774,898,904,856,761,4.84,-8.37,-2.31,-0.05,0.00,-0.03
2024-12-25 18:24:12,773,890,904,856,760,4.74,-8.36,-2.15,-0.01,0.04,-0.06
2024-12-25 18:24:12,773,888,925,865,761,5.06,-8.34,-2.20,-0.05,0.02,-0.00
2024-12-25 18:24:12,774,885,918,846,760,4.81,-8.35,-2.25,-0.04,0.03,0.03
2024-12-25 18:24:13,773,889,907,855,760,4.81,-8.37,-2.26,-0.04,0.03,0.00
2024-12-25 18:24:13,773,897,917,854,761,4.89,-8.31,-2.13,-0.08,0.01,0.01
2024-12-25 18:24:13,772,897,910,854,761,4.78,-8.41,-2.29,-0.03,-0.01,-0.03
2024-12-25 18:24:13,773,886,912,848,761,4.76,-8.40,-2.21,-0.03,0.05,-0.01
2024-12-25 18:24:13,774,885,922,850,760,4.83,-8.38,-2.40,-0.06,0.01,-0.00
2024-12-25 18:24:14,774,889,914,846,761,4.81,-8.38,-2.39,-0.04,0.01,-0.01
2024-12-25 18:24:14,773,882,907,845,761,4.76,-8.36,-2.21,-0.05,0.00,-0.02
2024-12-25 18:24:14,773,894,905,850,761,4.76,-8.38,-2.35,-0.01,0.02,-0.01
2024-12-25 18:24:14,773,884,903,854,761,4.72,-8.37,-2.12,-0.03,0.02,-0.01
2024-12-25 18:24:14,773,883,916,846,760,4.66,-8.36,-2.38,-0.05,0.04,-0.02
2024-12-25 18:24:15,773,906,904,863,761,5.00,-8.37,-2.29,-0.15,0.08,0.01
2024-12-25 18:24:15,773,890,901,843,760,4.75,-8.28,-2.59,0.07,-0.07,-0.07
2024-12-25 18:24:15,773,896,915,848,761,4.80,-8.18,-2.10,-0.06,0.06,-0.08
2024-12-25 18:24:15,774,890,916,845,762,5.08,-8.18,-2.29,0.01,-0.01,-0.02
2024-12-25 18:24:15,774,905,923,849,761,5.18,-8.27,-2.64,-0.02,0.02,0.00
2024-12-25 18:24:15,774,888,927,865,761,4.94,-8.21,-2.09,-0.07,0.01,0.01
2024-12-25 18:24:16,774,880,902,852,760,4.70,-8.38,-2.44,0.02,0.04,-0.02
2024-12-25 18:24:16,774,887,909,861,761,5.14,-8.27,-2.32,-0.08,0.06,0.00
2024-12-25 18:24:16,773,893,924,855,760,4.83,-8.25,-2.21,-0.02,0.07,0.03
2024-12-25 18:24:16,774,883,917,854,760,5.03,-8.30,-2.28,-0.06,0.03,-0.02
2024-12-25 18:24:16,774,891,924,843,760,4.81,-8.34,-2.41,-0.05,0.01,-0.01
2024-12-25 18:24:17,775,886,908,841,759,4.87,-8.26,-2.34,-0.06,0.03,0.01
2024-12-25 18:24:17,774,883,899,844,760,4.77,-8.34,-2.34,-0.05,0.02,-0.01
2024-12-25 18:24:17,772,905,918,853,760,4.85,-8.34,-2.47,-0.05,0.01,-0.00
2024-12-25 18:24:17,774,899,902,849,761,4.81,-8.33,-2.41,-0.04,0.02,-0.01
2024-12-25 18:24:17,774,888,907,850,761,4.75,-8.30,-2.38,-0.04,0.04,-0.02
2024-12-25 18:24:18,774,889,907,848,760,4.87,-8.32,-2.38,-0.04,0.04,-0.01
2024-12-25 18:24:18,773,886,914,860,759,4.76,-8.37,-2.43,-0.06,-0.01,-0.01
2024-12-25 18:24:18,774,899,915,857,760,4.67,-8.31,-2.46,-0.04,0.01,-0.04
2024-12-25 18:24:18,775,890,908,846,761,4.87,-8.40,-2.71,-0.01,0.18,-0.08
2024-12-25 18:24:18,774,897,909,857,761,4.78,-8.21,-2.16,-0.05,0.02,-0.03
2024-12-25 18:24:18,774,887,918,849,759,4.83,-8.27,-2.17,0.00,0.05,-0.02
2024-12-25 18:24:19,773,894,907,846,760,5.14,-8.33,-2.35,-0.09,0.02,0.02
2024-12-25 18:24:19,775,894,910,840,760,4.88,-8.30,-2.32,-0.04,-0.01,-0.05
2024-12-25 18:24:19,774,894,908,838,761,4.93,-8.34,-2.29,-0.06,0.00,0.01
2024-12-25 18:24:19,775,890,906,855,761,4.60,-8.38,-2.44,-0.02,0.01,0.00
2024-12-25 18:24:19,775,883,905,845,761,4.79,-8.36,-2.26,-0.03,0.01,-0.02
2024-12-25 18:24:20,773,894,909,854,761,4.77,-8.31,-2.28,-0.04,0.02,-0.01
2024-12-25 18:24:20,772,896,905,838,761,4.83,-8.34,-2.28,-0.04,0.02,-0.01
2024-12-25 18:24:20,774,898,924,841,758,4.88,-8.34,-2.35,-0.06,0.02,-0.02
2024-12-25 18:24:20,773,890,905,866,760,4.59,-8.36,-2.35,-0.01,0.03,0.01
2024-12-25 18:24:20,776,896,911,840,760,4.92,-8.36,-2.14,0.01,-0.01,-0.04
2024-12-25 18:24:21,772,885,908,857,761,4.80,-8.34,-2.64,-0.06,0.04,-0.03
2024-12-25 18:24:21,773,889,910,842,760,4.86,-8.29,-2.22,-0.06,0.03,0.01
2024-12-25 18:24:21,774,893,916,855,760,4.64,-8.37,-2.52,-0.04,0.02,0.00
2024-12-25 18:24:21,775,894,919,859,762,4.84,-8.33,-2.28,-0.04,-0.00,0.02
2024-12-25 18:24:21,775,889,915,845,761,5.05,-8.32,-2.40,0.04,0.06,0.06
2024-12-25 18:24:21,775,900,909,840,762,4.78,-8.31,-2.51,-0.05,0.20,0.10
2024-12-25 18:24:22,775,885,916,859,761,4.40,-8.52,-1.96,-0.07,0.05,0.07
2024-12-25 18:24:22,775,881,908,836,759,4.17,-8.61,-2.48,-0.08,0.01,0.06
2024-12-25 18:24:22,774,896,921,848,760,4.29,-8.59,-2.24,-0.05,-0.03,-0.04
2024-12-25 18:24:22,775,893,909,831,760,3.87,-8.69,-2.95,-0.18,-0.22,0.00
2024-12-25 18:24:22,773,898,923,838,760,4.60,-8.33,-2.24,-0.06,0.03,-0.09
2024-12-25 18:24:23,776,881,920,834,760,4.41,-8.49,-2.93,-0.02,-0.13,-0.06
2024-12-25 18:24:23,775,878,916,835,761,4.36,-8.35,-2.87,-0.00,0.02,0.02
2024-12-25 18:24:23,776,887,918,828,760,4.13,-8.55,-3.11,-0.04,0.05,-0.01
2024-12-25 18:24:23,776,897,907,838,761,4.41,-8.46,-2.67,0.02,0.03,-0.00
2024-12-25 18:24:23,775,877,914,844,761,4.12,-8.41,-2.53,-0.03,0.05,0.01
2024-12-25 18:24:23,776,884,914,853,760,4.19,-8.47,-2.68,-0.02,0.01,0.03
2024-12-25 18:24:24,777,885,914,836,760,4.20,-8.52,-2.60,-0.03,0.02,0.01
2024-12-25 18:24:24,775,881,914,848,760,4.09,-8.56,-2.79,-0.04,0.03,0.03
2024-12-25 18:24:24,775,890,923,855,759,3.96,-8.60,-2.68,-0.03,0.00,-0.01
2024-12-25 18:24:24,777,892,908,842,760,4.11,-8.58,-2.66,-0.04,0.04,-0.01
2024-12-25 18:24:24,775,885,912,841,761,4.04,-8.62,-2.71,-0.06,0.02,-0.01
2024-12-25 18:24:25,777,886,920,826,759,4.07,-8.56,-2.68,-0.05,0.03,-0.01
2024-12-25 18:24:25,776,886,914,852,760,4.05,-8.57,-2.66,-0.04,0.02,-0.02
2024-12-25 18:24:25,776,895,910,835,760,4.10,-8.50,-2.76,-0.05,0.01,-0.01
2024-12-25 18:24:25,777,887,906,833,760,4.05,-8.56,-2.81,-0.05,0.03,-0.01
2024-12-25 18:24:25,777,891,911,857,760,4.00,-8.46,-2.67,-0.03,0.03,-0.01
2024-12-25 18:24:26,775,893,913,821,760,3.98,-8.62,-2.83,-0.04,0.04,-0.04
2024-12-25 18:24:26,774,886,916,837,760,4.04,-8.58,-2.90,-0.04,0.03,-0.03
2024-12-25 18:24:26,776,890,910,831,760,4.10,-8.49,-2.80,-0.04,0.03,-0.03
2024-12-25 18:24:26,776,881,903,835,760,4.08,-8.49,-2.76,-0.02,0.04,-0.02
2024-12-25 18:24:26,777,881,914,844,761,4.10,-8.56,-2.85,-0.01,0.04,-0.01
2024-12-25 18:24:26,776,885,913,832,759,4.15,-8.48,-2.71,-0.07,0.03,-0.02
2024-12-25 18:24:27,775,900,911,850,760,4.14,-8.47,-2.73,-0.06,-0.01,-0.01
2024-12-25 18:24:27,775,884,920,833,761,4.15,-8.51,-2.80,-0.02,-0.02,-0.01
2024-12-25 18:24:27,776,893,910,838,760,4.11,-8.49,-2.86,-0.04,0.01,-0.02
2024-12-25 18:24:27,776,889,907,835,760,4.19,-8.50,-2.78,-0.05,0.01,-0.01
2024-12-25 18:24:27,777,884,913,843,761,4.09,-8.50,-2.84,-0.04,0.02,-0.01
2024-12-25 18:24:28,777,886,906,847,760,4.15,-8.49,-2.89,-0.04,0.03,-0.02
2024-12-25 18:24:28,776,886,922,835,760,4.10,-8.48,-2.82,-0.01,0.02,-0.00
2024-12-25 18:24:28,776,885,907,843,760,4.00,-8.52,-2.85,-0.03,0.05,-0.03
2024-12-25 18:24:28,775,885,924,845,760,4.13,-8.48,-2.70,-0.03,0.02,0.01
2024-12-25 18:24:28,777,904,922,836,760,4.15,-8.53,-2.83,-0.06,0.03,-0.02
2024-12-25 18:24:29,775,872,902,829,761,4.11,-8.50,-2.79,-0.03,0.03,-0.01
2024-12-25 18:24:29,775,883,905,841,760,4.16,-8.52,-2.82,-0.03,0.02,-0.01
2024-12-25 18:24:29,775,886,908,838,760,4.05,-8.50,-2.80,-0.05,0.01,-0.01
2024-12-25 18:24:29,776,894,906,845,761,4.09,-8.58,-2.87,-0.04,0.02,-0.00
2024-12-25 18:24:29,776,902,918,842,761,4.07,-8.52,-2.72,-0.04,0.01,-0.01
2024-12-25 18:24:30,776,900,914,834,760,4.10,-8.54,-2.78,-0.03,0.03,-0.02
2024-12-25 18:24:30,776,905,917,850,762,4.12,-8.51,-2.77,-0.04,0.03,-0.02
2024-12-25 18:24:30,777,898,909,845,760,4.08,-8.50,-2.78,-0.03,0.03,-0.01
2024-12-25 18:24:30,777,887,913,837,760,3.98,-8.45,-2.65,-0.07,0.01,-0.01
2024-12-25 18:24:30,774,879,920,838,761,3.89,-8.55,-2.57,0.11,0.12,-0.03
2024-12-25 18:24:30,776,881,916,813,761,3.99,-8.70,-2.54,0.20,-0.02,-0.03
2024-12-25 18:24:31,776,881,918,844,759,4.66,-8.62,-2.04,-0.07,0.05,-0.02
2024-12-25 18:24:31,776,882,915,845,760,4.34,-8.72,-2.20,-0.03,-0.01,-0.01
2024-12-25 18:24:31,777,886,921,843,761,4.21,-8.65,-2.18,0.07,0.03,-0.03
2024-12-25 18:24:31,776,884,918,843,760,4.17,-8.51,-1.92,-0.09,-0.03,-0.05
2024-12-25 18:24:31,776,884,920,845,760,4.51,-8.59,-2.09,-0.01,0.01,-0.02
2024-12-25 18:24:32,775,883,918,844,761,4.49,-8.60,-2.15,-0.03,0.01,-0.03
2024-12-25 18:24:32,776,884,918,844,761,4.30,-8.60,-2.12,-0.07,0.00,0.00
2024-12-25 18:24:32,775,882,919,845,761,4.53,-8.54,-2.05,-0.01,-0.04,-0.01
2024-12-25 18:24:32,775,884,914,844,761,4.16,-8.70,-2.30,-0.08,0.02,-0.00
2024-12-25 18:24:32,776,882,922,846,761,4.19,-8.60,-1.94,-0.04,0.01,-0.01
2024-12-25 18:24:33,774,882,918,845,762,4.20,-8.70,-2.04,0.01,0.03,-0.00
2024-12-25 18:24:33,775,883,917,845,759,4.32,-8.73,-2.11,-0.11,0.01,0.02
2024-12-25 18:24:33,776,884,921,843,760,4.47,-8.62,-2.14,-0.06,0.02,-0.03
2024-12-25 18:24:33,775,882,917,844,760,4.32,-8.61,-2.15,-0.05,0.07,-0.01
2024-12-25 18:24:33,776,886,920,845,761,4.47,-8.72,-2.56,-0.22,-0.02,-0.08
2024-12-25 18:24:33,777,883,917,844,762,4.54,-8.59,-2.54,-0.03,0.02,-0.03
2024-12-25 18:24:34,776,886,920,845,760,4.35,-8.44,-2.36,-0.03,0.02,-0.03
2024-12-25 18:24:34,775,881,918,843,760,4.41,-8.31,-2.38,-0.04,0.05,0.05
2024-12-25 18:24:34,775,882,918,845,763,4.10,-8.51,-2.39,-0.04,0.02,0.03
2024-12-25 18:24:34,776,885,919,844,762,4.25,-8.48,-2.43,-0.01,0.02,0.01
2024-12-25 18:24:34,775,884,918,846,760,4.16,-8.59,-2.45,-0.09,0.05,-0.00
2024-12-25 18:24:35,776,883,916,845,760,4.25,-8.63,-2.48,-0.06,0.02,-0.05
2024-12-25 18:24:35,774,882,919,845,760,4.26,-8.62,-2.46,-0.09,0.01,-0.02
2024-12-25 18:24:35,774,884,919,844,760,4.26,-8.42,-2.38,-0.09,0.02,-0.01
2024-12-25 18:24:35,774,883,921,843,760,4.10,-8.60,-2.48,0.08,0.04,0.00
2024-12-25 18:24:35,776,881,917,844,761,4.51,-8.54,-2.54,-0.07,-0.01,-0.03
2024-12-25 18:24:35,775,885,920,845,760,4.09,-8.56,-2.66,-0.07,0.00,-0.01
2024-12-25 18:24:36,774,882,919,843,760,4.23,-8.60,-2.47,-0.04,0.02,-0.03
2024-12-25 18:24:36,775,883,916,845,759,4.45,-8.46,-2.50,-0.03,0.03,-0.03
2024-12-25 18:24:36,775,881,920,846,762,4.22,-8.48,-1.92,0.05,0.12,0.06
2024-12-25 18:24:36,775,882,919,846,760,4.04,-8.71,-2.31,-0.02,-0.03,0.00
2024-12-25 18:24:36,776,884,917,844,761,4.56,-8.54,-2.23,-0.05,-0.04,-0.03
2024-12-25 18:24:37,776,885,919,845,760,3.85,-8.76,-2.19,-0.04,-0.04,0.05
2024-12-25 18:24:37,776,883,918,845,760,4.43,-9.02,-2.29,-0.05,-0.01,0.05
2024-12-25 18:24:37,776,884,919,845,761,3.99,-8.65,-2.07,-0.02,0.02,-0.04
2024-12-25 18:24:37,775,881,918,845,761,4.02,-8.70,-2.24,-0.01,0.04,-0.03
2024-12-25 18:24:37,775,883,922,846,760,4.33,-8.95,-2.07,-0.07,-0.20,-0.14
2024-12-25 18:24:38,777,881,919,845,761,4.34,-8.76,-2.38,-0.02,0.08,-0.10
2024-12-25 18:24:38,777,884,922,847,761,4.11,-8.68,-1.76,-0.03,0.16,-0.04
2024-12-25 18:24:38,775,882,917,844,759,4.46,-8.36,-2.19,-0.06,0.07,-0.04
2024-12-25 18:24:38,776,882,920,845,761,4.62,-8.63,-1.90,0.01,0.09,-0.03
2024-12-25 18:24:38,775,882,921,846,761,4.32,-8.73,-1.79,-0.04,-0.08,-0.06
2024-12-25 18:24:39,775,883,917,844,760,4.64,-8.59,-2.17,0.00,0.02,-0.02
2024-12-25 18:24:39,777,884,919,847,761,4.47,-8.20,-2.07,0.01,0.11,-0.03
2024-12-25 18:24:39,776,882,918,844,760,4.42,-8.50,-1.58,-0.06,0.03,-0.03
2024-12-25 18:24:39,776,884,920,846,760,4.80,-8.75,-2.08,-0.15,0.06,0.01
2024-12-25 18:24:39,778,884,920,847,762,5.36,-8.26,-2.27,-0.12,0.09,-0.07
2024-12-25 18:24:39,776,881,915,844,761,4.33,-8.11,-1.95,-0.09,-0.01,-0.13
2024-12-25 18:24:40,775,883,918,844,762,5.43,-7.87,-2.15,0.06,0.00,-0.03
2024-12-25 18:24:40,774,883,918,843,759,4.30,-8.31,-2.54,-0.09,-0.16,-0.11
2024-12-25 18:24:40,776,883,919,846,762,4.88,-8.46,-2.40,-0.04,0.05,-0.19
2024-12-25 18:24:40,774,882,918,844,760,6.01,-7.78,-2.27,-0.33,-0.34,-0.60
2024-12-25 18:24:40,776,882,920,847,762,5.45,-7.74,-1.71,-0.49,0.38,-0.44
2024-12-25 18:24:41,775,884,919,844,761,7.06,-7.42,-3.08,-0.31,0.07,-0.26
2024-12-25 18:24:41,777,881,919,846,760,7.93,-5.87,-2.41,-0.19,0.24,-0.23
2024-12-25 18:24:41,775,884,919,845,761,7.62,-6.28,-2.90,0.01,-0.05,0.11
2024-12-25 18:24:41,778,881,917,845,761,7.32,-6.13,-2.40,0.11,-0.31,0.35
2024-12-25 18:24:41,776,883,919,845,761,6.41,-7.19,-2.04,0.22,0.24,0.35
2024-12-25 18:24:41,777,884,918,845,761,5.08,-7.80,-2.87,0.13,-0.03,0.53
2024-12-25 18:24:42,774,880,916,844,760,5.51,-8.28,-1.48,0.22,0.33,0.19
2024-12-25 18:24:42,775,882,911,832,761,5.23,-7.96,-0.30,-0.11,0.35,0.13
2024-12-25 18:24:42,775,879,911,859,760,4.61,-8.75,-1.67,-0.27,0.27,0.04
2024-12-25 18:24:42,777,883,908,854,761,5.43,-8.82,-1.98,0.18,-0.11,0.05
2024-12-25 18:24:42,777,884,918,857,761,4.83,-8.76,-1.57,0.20,0.14,-0.08
2024-12-25 18:24:43,778,885,922,854,762,5.22,-8.66,-0.77,-0.03,0.20,-0.14
2024-12-25 18:24:43,777,884,925,849,761,5.14,-8.39,-0.17,-0.08,0.14,-0.07
2024-12-25 18:24:43,778,874,922,867,765,5.10,-8.26,-0.65,-0.30,-0.01,0.04
2024-12-25 18:24:43,778,877,905,865,766,5.41,-8.30,-0.98,-0.06,-0.15,0.09
2024-12-25 18:24:43,780,884,907,864,766,4.92,-8.65,-1.30,-0.05,-0.11,0.03
2024-12-25 18:24:44,778,885,904,872,766,5.10,-8.67,-1.53,-0.03,0.13,-0.09
2024-12-25 18:24:44,780,887,907,874,765,5.17,-8.53,-1.33,-0.06,0.00,0.06
2024-12-25 18:24:44,776,894,911,873,766,4.53,-8.59,-1.46,-0.08,0.20,-0.02
2024-12-25 18:24:44,780,883,903,869,764,5.44,-8.49,-1.31,0.03,0.10,-0.04
2024-12-25 18:24:44,779,891,917,867,766,5.24,-8.43,-1.13,-0.07,0.05,-0.02
2024-12-25 18:24:44,778,888,901,870,766,5.23,-8.50,-1.30,0.02,-0.09,-0.01
2024-12-25 18:24:45,779,878,913,859,767,4.78,-8.86,-1.02,0.08,-0.01,-0.12
2024-12-25 18:24:45,779,888,907,876,765,5.12,-8.76,-1.26,-0.16,0.09,-0.11
2024-12-25 18:24:45,778,878,904,871,767,5.92,-8.05,-1.54,0.12,0.01,-0.22
2024-12-25 18:24:45,778,881,909,874,766,6.10,-7.66,-0.71,-0.18,-0.09,0.08
2024-12-25 18:24:45,779,886,892,854,767,5.63,-7.95,-1.03,-0.13,0.27,0.12
2024-12-25 18:24:46,778,883,923,858,767,4.94,-8.22,-1.36,-0.24,0.05,0.09
2024-12-25 18:24:46,780,883,925,857,766,4.91,-8.40,-1.76,-0.07,-0.09,0.14
2024-12-25 18:24:46,778,884,929,855,767,4.76,-8.36,-1.84,-0.01,0.00,0.01
2024-12-25 18:24:46,780,885,921,859,766,4.95,-8.50,-1.85,-0.08,0.01,-0.05
2024-12-25 18:24:46,777,886,926,858,767,5.27,-8.44,-1.94,-0.11,0.02,0.04
2024-12-25 18:24:47,778,883,927,858,767,4.90,-8.42,-1.66,0.07,0.05,0.04
2024-12-25 18:24:47,779,886,923,855,768,4.74,-8.47,-1.58,0.01,0.06,-0.03
2024-12-25 18:24:47,777,885,925,857,766,5.30,-8.41,-2.04,0.07,0.05,-0.01
2024-12-25 18:24:47,778,884,927,857,766,5.11,-8.25,-1.06,0.09,0.06,-0.09
2024-12-25 18:24:47,778,885,923,855,766,5.47,-8.50,-1.21,-0.12,-0.01,-0.04
2024-12-25 18:24:47,779,884,925,856,767,5.09,-8.43,-1.30,-0.03,0.03,0.02
2024-12-25 18:24:48,777,883,923,856,769,5.16,-8.37,-1.22,-0.04,-0.01,0.03
2024-12-25 18:24:48,778,883,925,855,768,4.98,-8.54,-1.13,-0.08,0.03,0.02
2024-12-25 18:24:48,779,885,927,856,769,5.16,-8.40,-1.21,-0.04,0.05,0.02
2024-12-25 18:24:48,777,882,922,856,768,5.03,-8.68,-1.57,-0.11,0.08,0.04
2024-12-25 18:24:48,778,884,924,855,770,4.81,-8.89,-1.92,0.02,-0.13,-0.05
2024-12-25 18:24:49,778,883,927,857,767,5.17,-8.27,-0.03,0.12,0.10,-0.01
2024-12-25 18:24:49,778,885,924,857,766,4.35,-8.65,-0.66,-0.10,-0.16,-0.53
2024-12-25 18:24:49,779,885,928,856,769,5.39,-8.33,-1.46,-0.27,0.14,-0.20
2024-12-25 18:24:49,779,887,925,855,767,6.60,-7.51,-1.31,-0.03,0.69,-0.61
2024-12-25 18:24:49,778,885,925,858,767,6.85,-7.33,-1.73,-0.18,0.24,-0.56
2024-12-25 18:24:50,778,883,924,857,768,8.13,-5.92,-1.57,-0.05,-0.06,-0.41
2024-12-25 18:24:50,780,884,923,855,768,8.28,-5.60,-1.45,-0.10,-0.10,0.12
2024-12-25 18:24:50,778,883,926,854,768,8.69,-6.11,-2.63,0.10,0.01,0.45
2024-12-25 18:24:50,777,883,923,853,768,6.10,-7.17,-1.34,0.22,0.09,0.28
2024-12-25 18:24:50,778,884,924,855,768,7.82,-7.75,-0.59,0.01,0.28,0.15
2024-12-25 18:24:50,780,883,927,855,767,5.32,-7.07,-0.23,-0.24,0.03,0.15
2024-12-25 18:24:51,779,881,923,855,768,7.27,-7.61,-1.01,-0.29,0.03,-0.09
2024-12-25 18:24:51,779,885,923,853,767,6.69,-7.62,-1.85,-0.09,0.01,0.23
2024-12-25 18:24:51,780,884,923,856,768,5.86,-7.86,-1.01,0.11,-0.02,0.23
2024-12-25 18:24:51,777,884,924,854,766,5.79,-7.51,-1.19,-0.14,-0.14,0.14
2024-12-25 18:24:51,779,884,924,854,768,5.76,-8.12,-0.95,-0.14,-0.01,-0.04
2024-12-25 18:24:52,779,883,924,854,767,6.23,-7.92,-1.23,0.03,0.05,-0.04
2024-12-25 18:24:52,778,883,923,853,767,5.67,-8.16,-0.90,-0.06,-0.11,-0.08
2024-12-25 18:24:52,780,884,924,855,769,6.32,-7.98,-1.81,-0.14,0.02,-0.11
2024-12-25 18:24:52,780,882,922,854,768,5.96,-7.50,-1.39,-0.11,0.10,-0.15
2024-12-25 18:24:52,780,884,925,854,766,6.42,-7.40,-1.63,-0.15,-0.17,-0.09
2024-12-25 18:24:53,780,883,924,855,769,6.36,-7.54,-2.33,-0.31,-0.17,0.02
2024-12-25 18:24:53,779,884,927,855,767,6.26,-7.46,-1.72,-0.00,0.08,0.07
2024-12-25 18:24:53,779,881,924,857,767,5.99,-7.69,-2.42,-0.03,0.08,0.09
2024-12-25 18:24:53,777,881,923,853,768,6.26,-7.33,-1.57,-0.04,0.06,-0.03
2024-12-25 18:24:53,780,886,926,853,768,6.51,-7.61,-2.30,-0.56,-0.41,0.13
2024-12-25 18:24:53,779,883,924,856,769,5.95,-7.20,-2.96,-0.33,-0.03,-0.22
2024-12-25 18:24:54,779,881,922,856,770,6.31,-6.96,-3.53,-0.00,-0.16,-0.04
2024-12-25 18:24:54,778,882,925,853,768,6.32,-6.90,-3.59,-0.02,-0.04,0.08
2024-12-25 18:24:54,781,882,925,854,768,6.05,-6.88,-3.17,0.02,0.02,0.08
2024-12-25 18:24:54,778,881,925,854,768,6.34,-7.47,-3.08,-0.08,0.09,0.19
2024-12-25 18:24:54,780,884,923,854,768,5.55,-7.38,-3.38,0.10,0.12,0.04
2024-12-25 18:24:55,780,883,923,854,767,5.96,-7.43,-2.14,0.19,0.16,-0.05
2024-12-25 18:24:55,778,883,922,857,770,6.46,-7.15,-1.97,-0.12,0.03,-0.15
2024-12-25 18:24:55,777,884,924,855,767,6.89,-7.17,-2.18,-0.06,0.04,-0.05
2024-12-25 18:24:55,780,882,925,854,768,6.67,-7.15,-2.26,-0.06,0.01,-0.02
2024-12-25 18:24:55,777,883,922,853,768,6.78,-7.02,-2.11,-0.10,0.04,0.03
2024-12-25 18:24:55,779,883,926,854,769,6.29,-7.27,-2.67,-0.10,0.01,0.04
2024-12-25 18:24:56,779,882,924,855,768,6.45,-7.16,-2.16,-0.02,0.04,-0.01
2024-12-25 18:24:56,779,884,923,854,767,6.49,-7.18,-2.27,-0.03,0.04,-0.01
2024-12-25 18:24:56,779,882,928,856,769,6.46,-7.18,-2.27,-0.03,0.02,-0.05
2024-12-25 18:24:56,779,883,924,852,766,6.53,-7.15,-2.29,-0.03,0.03,-0.00
2024-12-25 18:24:56,778,883,924,854,768,6.78,-7.07,-3.22,-0.18,-0.37,-0.06
2024-12-25 18:24:57,780,882,924,854,767,6.17,-7.28,-2.01,0.05,0.01,-0.01
2024-12-25 18:24:57,780,884,926,854,768,6.72,-7.47,-2.72,-0.01,-0.10,-0.06
2024-12-25 18:24:57,779,881,924,853,768,6.15,-6.79,-2.75,0.00,-0.03,-0.09
2024-12-25 18:24:57,779,881,925,852,768,7.08,-6.83,-1.59,0.04,0.11,-0.21
2024-12-25 18:24:57,781,883,927,854,767,7.12,-6.84,-2.09,-0.15,-0.06,0.02
2024-12-25 18:24:58,776,882,924,853,767,7.52,-5.89,-2.02,0.18,-0.00,-0.04
2024-12-25 18:24:58,778,882,925,853,768,7.28,-6.73,-1.66,0.03,0.07,0.06
2024-12-25 18:24:58,781,882,926,855,767,7.37,-6.48,-1.38,-0.17,0.01,0.13
2024-12-25 18:24:58,778,882,924,854,769,6.73,-6.91,-2.93,-0.23,-0.15,0.24
2024-12-25 18:24:58,779,883,924,854,768,6.80,-7.44,-2.43,-0.00,0.07,0.14
2024-12-25 18:24:58,779,882,924,854,769,6.58,-7.59,-2.22,0.18,0.10,0.06
2024-12-25 18:24:59,779,881,924,852,769,7.08,-7.52,-2.36,-0.10,-0.24,-0.03
2024-12-25 18:24:59,780,883,925,854,768,6.56,-7.02,-1.99,-0.16,0.05,0.02
2024-12-25 18:24:59,773,884,924,853,766,5.96,-7.64,-2.60,-0.07,0.06,0.35
2024-12-25 18:24:59,774,883,925,853,766,5.62,-7.66,-2.81,-0.10,0.06,0.03
2024-12-25 18:24:59,771,883,924,854,765,5.86,-7.64,-2.70,-0.01,0.05,-0.05
2024-12-25 18:25:00,772,882,924,852,764,5.77,-7.64,-2.29,0.10,0.06,-0.04
2024-12-25 18:25:00,773,885,925,852,765,5.53,-7.50,-1.92,0.02,0.22,-0.17
2024-12-25 18:25:00,774,883,927,854,765,6.32,-7.48,-2.10,-0.02,-0.11,-0.08
2024-12-25 18:25:00,773,883,922,852,764,6.32,-7.63,-2.65,0.00,-0.02,-0.02
2024-12-25 18:25:00,778,884,926,854,766,6.27,-7.26,-1.86,0.00,0.01,0.01
2024-12-25 18:25:01,776,885,925,852,766,6.41,-7.41,-2.09,-0.07,-0.03,0.01
2024-12-25 18:25:01,773,883,923,854,766,6.42,-7.54,-2.11,-0.06,0.01,0.04
2024-12-25 18:25:01,775,883,924,853,768,6.22,-7.55,-2.13,-0.09,0.01,0.06
2024-12-25 18:25:01,774,882,924,854,768,6.13,-7.57,-2.06,-0.06,0.03,-0.01
2024-12-25 18:25:01,776,881,923,854,766,6.11,-7.59,-2.07,-0.01,0.03,0.01
2024-12-25 18:25:01,776,885,925,855,769,6.24,-7.55,-1.91,-0.03,0.03,0.01
2024-12-25 18:25:02,776,883,924,853,768,5.96,-7.75,-2.26,-0.09,-0.09,-0.02
2024-12-25 18:25:02,776,882,924,853,768,6.40,-7.57,-2.16,0.13,0.09,-0.14
2024-12-25 18:25:02,774,882,925,853,766,6.29,-7.46,-1.85,0.02,0.16,-0.30
2024-12-25 18:25:02,774,882,926,854,766,6.68,-7.40,-1.94,-0.08,0.03,-0.24
2024-12-25 18:25:02,779,882,924,854,767,7.10,-6.87,-2.27,-0.01,-0.07,-0.12
2024-12-25 18:25:03,775,883,923,851,766,7.10,-6.79,-1.85,-0.09,0.05,0.00
2024-12-25 18:25:03,776,884,924,855,768,6.85,-7.16,-2.47,-0.22,0.23,0.01
2024-12-25 18:25:03,776,881,926,851,767,6.42,-6.96,-1.47,0.03,-0.09,0.03
2024-12-25 18:25:03,773,881,926,854,767,6.85,-7.04,-1.53,-0.01,0.09,-0.11
2024-12-25 18:25:03,775,884,927,854,768,7.38,-7.02,-2.05,-0.05,-0.01,-0.08
2024-12-25 18:25:04,776,883,923,853,767,7.22,-6.60,-1.65,-0.08,0.01,0.00
2024-12-25 18:25:04,776,883,924,853,767,7.08,-6.91,-1.79,-0.06,0.03,0.10
2024-12-25 18:25:04,775,883,924,853,768,6.99,-6.74,-1.88,-0.03,0.01,0.09
2024-12-25 18:25:04,774,882,924,852,768,6.91,-7.15,-2.22,-0.19,0.04,0.10
2024-12-25 18:25:04,777,883,924,853,767,6.57,-7.13,-1.91,0.03,0.08,0.06
2024-12-25 18:25:04,778,884,925,855,767,6.61,-7.09,-1.96,-0.10,0.04,0.01
2024-12-25 18:25:05,775,882,926,852,767,6.49,-7.13,-2.15,0.09,0.07,-0.01
2024-12-25 18:25:05,777,881,924,853,767,6.79,-6.96,-1.89,-0.12,0.04,-0.05
2024-12-25 18:25:05,778,881,923,852,768,6.54,-7.21,-2.09,0.00,0.08,0.07
2024-12-25 18:25:05,775,881,925,854,767,6.72,-7.23,-2.01,-0.11,0.02,0.00
2024-12-25 18:25:05,776,882,922,854,766,6.26,-7.29,-2.01,-0.05,0.09,0.02
2024-12-25 18:25:06,777,883,924,855,768,6.95,-7.27,-1.67,-0.09,0.08,0.02
2024-12-25 18:25:06,777,882,925,854,769,5.84,-7.25,-2.21,-0.16,0.05,0.15
2024-12-25 18:25:06,775,884,924,853,769,6.72,-8.07,-3.13,0.00,0.11,-0.03
2024-12-25 18:25:06,777,883,925,853,768,5.74,-7.27,-1.72,-0.05,-0.02,0.03
2024-12-25 18:25:06,776,881,924,853,767,6.28,-7.66,-2.11,0.04,0.05,0.06
2024-12-25 18:25:07,775,883,923,854,768,5.81,-7.78,-1.98,-0.04,0.09,0.05
2024-12-25 18:25:07,777,883,926,854,766,5.82,-7.77,-2.16,0.00,0.00,-0.04
2024-12-25 18:25:07,777,883,925,853,767,6.28,-7.51,-1.75,-0.02,0.04,0.02
2024-12-25 18:25:07,774,882,925,853,767,5.89,-7.87,-2.31,-0.02,0.07,0.04
2024-12-25 18:25:07,776,882,925,853,768,5.26,-7.73,-1.94,0.04,0.05,-0.05
2024-12-25 18:25:07,775,882,923,852,767,6.49,-7.71,-1.63,-0.01,-0.00,-0.14
2024-12-25 18:25:08,776,882,924,853,766,5.93,-7.74,-1.65,-0.05,0.05,0.08
2024-12-25 18:25:08,776,882,924,853,767,5.67,-7.79,-1.61,-0.03,-0.01,-0.02
2024-12-25 18:25:08,776,882,924,852,767,5.76,-7.96,-1.80,0.00,0.01,-0.06
2024-12-25 18:25:08,779,883,926,853,767,6.37,-7.73,-1.57,-0.07,0.07,-0.11
2024-12-25 18:25:08,776,882,923,852,766,6.29,-7.60,-1.96,-0.07,-0.01,0.05
2024-12-25 18:25:09,777,883,924,852,767,5.88,-7.75,-1.84,-0.07,0.05,0.14
2024-12-25 18:25:09,775,883,926,853,768,6.17,-7.62,-1.44,-0.10,0.07,0.08
2024-12-25 18:25:09,776,880,923,852,766,5.63,-8.06,-2.38,-0.08,0.05,0.02
2024-12-25 18:25:09,778,883,925,854,768,6.03,-7.75,-1.78,0.03,0.01,-0.08
2024-12-25 18:25:09,775,880,924,852,766,5.70,-7.84,-1.84,-0.12,0.04,0.04
2024-12-25 18:25:09,776,884,925,851,768,5.75,-7.88,-1.81,0.02,0.01,-0.06
2024-12-25 18:25:10,778,882,926,853,767,6.26,-7.70,-1.54,-0.09,0.05,0.05
2024-12-25 18:25:10,778,884,924,851,766,5.73,-7.98,-2.16,-0.04,0.08,0.00
2024-12-25 18:25:10,778,880,924,850,768,6.07,-7.82,-1.97,0.00,-0.01,-0.10
2024-12-25 18:25:10,778,882,921,852,767,5.73,-7.81,-1.65,-0.06,0.06,0.08
2024-12-25 18:25:10,774,880,925,853,768,6.11,-7.82,-2.00,0.02,0.06,-0.02
2024-12-25 18:25:11,780,883,924,852,766,6.07,-7.86,-1.98,-0.03,-0.02,-0.12
2024-12-25 18:25:11,778,883,927,852,767,5.77,-7.75,-1.88,-0.13,0.02,0.07
2024-12-25 18:25:11,777,882,924,850,766,6.10,-7.81,-1.48,-0.03,0.03,0.08
2024-12-25 18:25:11,778,883,924,851,766,5.54,-7.99,-1.70,-0.10,0.03,0.06
2024-12-25 18:25:11,776,882,925,852,767,5.57,-8.04,-1.87,-0.05,0.03,0.07
2024-12-25 18:25:12,775,884,923,853,767,5.21,-8.19,-2.05,-0.10,0.05,-0.02
2024-12-25 18:25:12,777,881,924,853,769,5.73,-7.94,-1.56,0.00,0.03,-0.01
2024-12-25 18:25:12,778,881,925,853,767,5.53,-8.11,-2.02,-0.04,0.07,-0.01
2024-12-25 18:25:12,780,881,924,851,768,5.59,-8.15,-2.00,0.03,0.01,-0.08
2024-12-25 18:25:12,777,884,924,853,767,5.77,-8.04,-1.58,-0.08,0.03,0.10
2024-12-25 18:25:12,777,882,923,851,768,4.98,-8.29,-1.92,-0.03,0.09,0.02
2024-12-25 18:25:13,778,881,924,852,766,5.35,-8.07,-1.60,0.02,-0.01,-0.05
2024-12-25 18:25:13,778,884,923,851,768,5.79,-8.20,-1.73,-0.10,0.07,0.05
2024-12-25 18:25:13,777,884,923,853,767,5.56,-8.35,-2.02,-0.00,0.04,0.08
2024-12-25 18:25:13,776,881,922,852,767,5.13,-8.37,-2.17,-0.12,0.03,0.03
2024-12-25 18:25:13,778,884,925,854,768,4.83,-8.24,-1.41,-0.07,0.04,0.07
2024-12-25 18:25:14,776,882,923,852,767,4.80,-8.44,-2.17,0.03,0.01,-0.06
2024-12-25 18:25:14,777,884,924,853,767,5.68,-8.13,-1.73,0.05,-0.02,-0.05
2024-12-25 18:25:14,777,882,923,853,767,4.85,-8.49,-2.30,-0.05,-0.03,0.06
2024-12-25 18:25:14,778,882,924,852,768,5.57,-8.16,-1.40,0.01,0.00,-0.06
2024-12-25 18:25:14,779,881,923,852,767,5.03,-8.42,-2.09,-0.14,-0.02,0.06
2024-12-25 18:25:15,777,883,924,851,768,4.87,-8.38,-1.92,-0.01,0.04,-0.07
2024-12-25 18:25:15,776,882,922,852,767,5.71,-8.05,-1.30,-0.12,0.00,-0.05
2024-12-25 18:25:15,778,882,925,853,766,5.39,-8.32,-2.22,-0.12,0.08,0.09
2024-12-25 18:25:15,776,881,924,852,767,5.09,-8.40,-2.33,-0.03,0.02,-0.05
2024-12-25 18:25:15,776,882,925,855,767,4.86,-8.24,-1.77,-0.06,0.06,0.05
2024-12-25 18:25:15,776,883,922,851,767,5.29,-8.26,-2.26,-0.17,-0.07,-0.04
2024-12-25 18:25:16,776,882,924,854,768,4.83,-8.37,-2.36,-0.12,0.05,0.06
2024-12-25 18:25:16,777,882,925,854,768,5.12,-8.17,-2.23,0.01,-0.01,0.02
2024-12-25 18:25:16,776,881,922,854,768,4.72,-8.32,-2.24,-0.01,0.02,-0.02
2024-12-25 18:25:16,777,883,924,853,769,5.09,-8.17,-1.88,0.01,0.02,-0.06
2024-12-25 18:25:16,776,883,922,852,767,4.53,-8.20,-2.08,0.00,0.02,0.03
2024-12-25 18:25:17,776,883,921,851,769,5.07,-8.29,-2.26,0.04,0.07,0.01
2024-12-25 18:25:17,775,881,925,854,768,4.89,-8.21,-1.84,-0.09,-0.03,-0.05
2024-12-25 18:25:17,776,881,924,851,769,5.08,-8.35,-2.14,0.02,0.03,-0.02
2024-12-25 18:25:17,776,881,924,853,769,5.35,-8.15,-1.69,0.02,0.01,-0.03
2024-12-25 18:25:17,777,881,923,852,768,5.41,-8.23,-2.07,-0.06,0.07,0.06
2024-12-25 18:25:17,777,880,925,853,767,4.57,-8.47,-2.20,-0.01,0.09,0.07
2024-12-25 18:25:18,775,881,923,853,769,4.81,-8.47,-1.64,0.00,0.06,-0.06
2024-12-25 18:25:18,777,884,924,853,768,4.75,-8.68,-2.20,-0.06,0.02,-0.00
2024-12-25 18:25:18,777,882,923,852,768,4.87,-9.15,-2.03,0.08,0.08,0.18
2024-12-25 18:25:18,777,881,925,852,767,4.14,-7.52,-2.27,-0.30,-0.37,0.48
2024-12-25 18:25:18,776,881,925,853,769,4.07,-9.24,-1.38,-0.01,0.08,-0.40
2024-12-25 18:25:19,776,880,924,851,766,4.63,-8.50,-3.08,0.12,0.06,-0.21
2024-12-25 18:25:19,776,882,923,852,768,4.26,-8.86,-1.99,0.09,0.14,-0.06
2024-12-25 18:25:19,778,884,923,853,768,3.96,-8.19,-2.19,-0.04,0.07,0.01
2024-12-25 18:25:19,777,880,922,852,768,4.65,-8.83,-2.53,0.08,0.01,-0.03
2024-12-25 18:25:19,778,883,926,850,767,4.44,-8.63,-2.25,-0.07,0.01,-0.02
2024-12-25 18:25:20,779,883,924,854,768,4.47,-8.57,-2.19,-0.00,0.04,-0.04
2024-12-25 18:25:20,777,882,925,853,767,4.35,-8.62,-2.35,-0.11,0.04,-0.05
2024-12-25 18:25:20,778,884,925,854,769,4.34,-8.45,-1.99,-0.03,0.05,0.01
2024-12-25 18:25:20,778,881,923,852,769,4.35,-8.63,-2.36,-0.05,-0.03,0.02
2024-12-25 18:25:20,777,883,924,852,768,4.75,-8.64,-2.04,0.04,0.07,-0.06
2024-12-25 18:25:20,777,885,924,852,769,4.67,-8.65,-2.34,-0.16,-0.00,-0.07
2024-12-25 18:25:21,777,880,924,851,768,4.24,-8.44,-1.89,-0.03,0.05,-0.02
2024-12-25 18:25:21,778,882,924,851,769,4.32,-8.65,-2.17,-0.05,0.02,0.03
2024-12-25 18:25:21,777,880,922,853,769,4.77,-8.71,-2.24,0.00,0.02,-0.05
2024-12-25 18:25:21,779,882,923,852,769,4.55,-8.73,-2.19,-0.07,0.04,-0.03
2024-12-25 18:25:21,778,882,923,852,769,4.36,-8.67,-2.11,-0.01,0.02,-0.03
2024-12-25 18:25:22,778,880,924,853,766,4.60,-8.51,-1.98,0.02,0.02,-0.06
2024-12-25 18:25:22,777,883,923,852,767,4.69,-8.71,-1.88,0.01,0.03,-0.10
2024-12-25 18:25:22,776,883,924,852,768,4.79,-8.62,-1.91,-0.01,0.03,0.01
2024-12-25 18:25:22,777,882,922,853,768,4.55,-8.27,-1.96,-0.05,0.01,-0.01
2024-12-25 18:25:22,777,884,923,855,767,4.76,-8.66,-2.04,-0.00,0.06,-0.05
2024-12-25 18:25:23,776,884,925,853,769,4.89,-8.54,-1.63,0.02,0.07,-0.07
2024-12-25 18:25:23,779,882,925,852,767,4.80,-8.50,-1.72,-0.05,0.04,0.02
2024-12-25 18:25:23,776,882,921,852,768,4.54,-8.53,-1.95,-0.04,0.01,-0.04
2024-12-25 18:25:23,776,882,924,852,767,4.96,-8.49,-1.71,-0.03,0.00,-0.09
2024-12-25 18:25:23,778,884,926,852,769,5.00,-8.46,-1.97,0.01,0.04,-0.04
2024-12-25 18:25:23,776,879,925,852,768,5.10,-8.65,-1.57,0.02,0.02,-0.03
2024-12-25 18:25:24,777,881,921,852,769,4.95,-8.55,-1.48,-0.07,0.03,0.05
2024-12-25 18:25:24,778,883,924,852,768,4.38,-8.45,-1.72,-0.03,0.06,0.00
2024-12-25 18:25:24,780,882,923,852,767,4.73,-8.51,-1.48,-0.00,0.04,0.02
2024-12-25 18:25:24,778,883,923,852,766,4.84,-8.69,-1.68,0.01,0.02,-0.01
2024-12-25 18:25:24,779,880,925,851,768,4.93,-8.66,-1.82,-0.06,0.03,-0.06
2024-12-25 18:25:25,777,881,922,850,765,4.84,-8.57,-1.57,-0.08,0.02,-0.01
2024-12-25 18:25:25,778,883,923,851,769,4.73,-8.62,-1.42,-0.03,0.02,-0.02
2024-12-25 18:25:25,777,880,921,850,766,4.88,-8.71,-1.58,0.07,0.09,-0.03
2024-12-25 18:25:25,776,883,922,852,766,4.70,-8.56,-1.25,-0.08,0.02,0.01
2024-12-25 18:25:25,780,882,926,852,766,4.83,-8.55,-1.42,-0.05,0.01,-0.01
2024-12-25 18:25:26,777,884,922,852,768,4.86,-8.67,-1.78,-0.06,0.00,-0.02
2024-12-25 18:25:26,777,881,921,853,767,4.69,-8.58,-1.39,-0.10,0.03,-0.02
2024-12-25 18:25:26,778,881,923,852,767,4.71,-8.68,-1.55,-0.09,0.02,0.04
2024-12-25 18:25:26,777,880,921,851,765,4.43,-8.61,-1.60,-0.02,0.01,-0.08
2024-12-25 18:25:26,779,883,924,853,767,5.05,-8.60,-1.44,0.04,0.02,-0.05
2024-12-25 18:25:26,778,881,922,850,767,5.10,-8.66,-1.55,-0.04,0.02,0.01
2024-12-25 18:25:27,777,883,922,851,769,4.51,-8.56,-1.44,-0.02,-0.03,0.05
2024-12-25 18:25:27,779,881,921,850,767,4.52,-8.71,-1.59,0.13,-0.10,0.02
2024-12-25 18:25:27,779,882,924,850,768,4.44,-8.75,-1.75,-0.08,0.01,0.00
2024-12-25 18:25:27,780,882,921,850,768,4.44,-8.72,-1.62,0.05,0.02,-0.06
2024-12-25 18:25:27,780,881,922,852,767,4.50,-8.66,-1.42,-0.02,0.01,-0.04
2024-12-25 18:25:28,779,881,923,850,769,4.64,-8.65,-1.45,-0.00,0.01,-0.03
2024-12-25 18:25:28,780,882,924,851,767,4.60,-8.66,-1.38,-0.05,0.05,0.01
2024-12-25 18:25:28,776,881,920,851,767,4.72,-8.85,-1.58,0.01,0.04,-0.11
2024-12-25 18:25:28,778,881,923,851,766,4.86,-8.59,-1.02,-0.02,0.02,-0.04
2024-12-25 18:25:28,778,880,924,852,766,4.66,-8.58,-1.41,-0.05,0.02,-0.10
2024-12-25 18:25:29,779,881,923,850,768,5.25,-8.17,-1.21,-0.01,0.04,-0.04
2024-12-25 18:25:29,779,883,923,853,768,5.30,-8.50,-1.46,-0.04,0.05,-0.04
2024-12-25 18:25:29,780,882,923,851,768,4.98,-8.56,-1.40,-0.07,0.03,-0.01
2024-12-25 18:25:29,779,881,925,852,766,4.85,-8.64,-1.31,-0.04,0.08,0.07
2024-12-25 18:25:29,778,881,923,851,768,4.69,-8.64,-1.56,-0.11,0.00,-0.08
2024-12-25 18:25:29,781,881,922,851,767,4.99,-8.46,-1.20,0.07,0.04,0.02
2024-12-25 18:25:30,779,882,922,851,769,4.93,-8.58,-1.51,-0.08,-0.00,0.01
2024-12-25 18:25:30,780,880,921,852,767,4.72,-8.52,-1.20,-0.04,0.02,0.02
2024-12-25 18:25:30,778,881,920,850,769,5.03,-8.65,-1.62,-0.03,0.02,0.00
2024-12-25 18:25:30,779,883,925,851,769,4.86,-8.64,-1.54,-0.08,0.02,-0.03
2024-12-25 18:25:30,778,880,920,852,767,4.69,-8.58,-1.55,-0.08,0.03,-0.02
2024-12-25 18:25:31,779,881,923,851,768,5.09,-8.37,-1.13,0.04,0.00,-0.01
2024-12-25 18:25:31,780,881,921,851,767,4.73,-8.71,-1.44,-0.07,0.06,0.06
2024-12-25 18:25:31,779,879,922,850,767,4.66,-8.64,-1.21,0.03,0.03,-0.03
2024-12-25 18:25:31,780,879,923,851,767,4.72,-8.62,-1.41,-0.06,-0.01,-0.01
2024-12-25 18:25:31,778,880,921,852,766,4.84,-8.57,-1.49,-0.04,0.01,-0.01
2024-12-25 18:25:31,778,882,922,852,766,4.78,-8.60,-1.36,-0.08,0.04,0.03
2024-12-25 18:25:32,778,880,922,851,768,4.53,-8.66,-1.40,-0.05,0.02,0.00
2024-12-25 18:25:32,778,880,921,852,767,4.58,-8.65,-1.14,-0.04,0.02,0.03
2024-12-25 18:25:32,779,881,922,851,767,4.77,-8.76,-1.56,-0.05,0.02,-0.02
2024-12-25 18:25:32,777,881,922,850,768,4.67,-8.68,-1.45,-0.07,0.00,-0.03
2024-12-25 18:25:32,779,880,921,851,768,4.41,-8.61,-1.19,-0.06,0.03,0.03
2024-12-25 18:25:33,780,882,922,852,769,4.68,-8.64,-1.36,-0.04,0.01,-0.01
2024-12-25 18:25:33,776,879,922,850,766,4.83,-8.67,-1.56,-0.02,0.03,-0.03
2024-12-25 18:25:33,779,883,925,850,767,4.68,-8.72,-1.49,-0.03,0.04,0.01
2024-12-25 18:25:33,777,880,921,849,766,4.55,-8.63,-1.20,-0.04,0.01,-0.00
2024-12-25 18:25:33,779,882,923,850,767,4.53,-8.67,-1.45,-0.01,0.05,-0.00
2024-12-25 18:25:34,779,880,924,849,767,4.51,-8.75,-1.47,-0.02,0.03,0.03
2024-12-25 18:25:34,777,880,924,848,768,4.29,-8.87,-1.57,0.01,0.03,-0.10
2024-12-25 18:25:34,780,881,923,850,766,5.04,-8.71,-1.37,-0.00,-0.00,-0.06
2024-12-25 18:25:34,779,880,923,850,766,4.72,-8.46,-1.26,-0.06,0.08,0.01
2024-12-25 18:25:34,780,881,922,851,767,4.88,-8.64,-1.27,0.02,0.05,-0.06
2024-12-25 18:25:34,783,879,925,850,767,4.83,-8.77,-1.17,0.01,0.03,-0.00
2024-12-25 18:25:35,778,880,923,849,766,4.85,-8.62,-1.01,-0.05,-0.01,0.02
2024-12-25 18:25:35,777,881,921,852,767,4.74,-8.71,-1.07,-0.04,0.02,-0.03
2024-12-25 18:25:35,778,882,922,850,767,4.91,-8.62,-1.09,-0.02,0.02,-0.03
2024-12-25 18:25:35,778,879,923,851,767,5.03,-8.55,-1.10,-0.05,-0.02,-0.09
2024-12-25 18:25:35,777,880,922,850,766,5.05,-8.63,-1.02,-0.02,0.07,-0.03
2024-12-25 18:25:36,778,880,922,851,768,4.91,-8.62,-1.19,-0.04,0.04,-0.00
2024-12-25 18:25:36,779,881,924,850,767,5.17,-8.58,-1.19,-0.02,0.01,-0.01
2024-12-25 18:25:36,778,881,922,851,766,4.55,-8.32,-0.99,-0.14,-0.09,-0.07
2024-12-25 18:25:36,779,882,924,850,767,5.33,-8.34,-1.08,-0.02,0.13,0.11
2024-12-25 18:25:36,776,880,921,850,767,5.13,-8.24,-1.02,-0.11,0.07,0.05
2024-12-25 18:25:37,776,882,923,849,767,5.11,-8.62,-0.93,0.03,0.01,0.03
2024-12-25 18:25:37,778,882,924,852,767,5.27,-8.61,-1.19,-0.07,0.04,0.04
2024-12-25 18:25:37,776,881,921,850,766,4.76,-8.63,-0.93,-0.09,0.05,0.03
2024-12-25 18:25:37,776,881,920,851,767,4.80,-8.66,-1.09,-0.00,0.12,0.02
2024-12-25 18:25:37,778,881,922,850,768,4.64,-8.78,-1.29,-0.02,0.04,0.02
2024-12-25 18:25:37,777,881,922,850,767,4.81,-8.49,-0.92,-0.01,0.00,-0.00
2024-12-25 18:25:38,778,881,920,852,766,4.96,-8.64,-1.00,-0.05,0.04,0.01
2024-12-25 18:25:38,776,880,923,850,767,4.90,-8.72,-1.30,-0.11,-0.02,-0.02
2024-12-25 18:25:38,777,881,923,851,766,4.52,-8.68,-0.89,-0.12,0.01,0.03
2024-12-25 18:25:38,777,881,922,850,767,4.76,-8.70,-1.00,0.01,0.02,0.06
2024-12-25 18:25:38,776,881,921,851,767,4.36,-8.85,-1.20,-0.07,0.04,-0.01
2024-12-25 18:25:39,778,880,920,849,766,4.70,-8.78,-1.05,0.02,0.06,-0.00
2024-12-25 18:25:39,776,882,925,849,766,4.59,-8.87,-1.15,-0.07,0.04,-0.03
2024-12-25 18:25:39,779,880,922,850,768,4.52,-8.69,-1.00,-0.03,0.02,-0.04
2024-12-25 18:25:39,779,878,923,851,767,4.60,-8.83,-0.98,0.03,0.01,-0.00
2024-12-25 18:25:39,778,880,922,850,768,4.77,-8.72,-0.90,-0.00,0.01,0.03
2024-12-25 18:25:40,779,881,922,850,766,4.54,-8.79,-1.16,-0.06,0.03,-0.02
2024-12-25 18:25:40,776,882,923,854,767,4.55,-8.76,-0.89,-0.05,0.03,-0.00
2024-12-25 18:25:40,778,880,920,849,766,4.92,-8.73,-1.17,-0.02,0.02,0.00
2024-12-25 18:25:40,779,879,922,849,766,4.34,-8.88,-1.12,-0.11,0.02,0.02
2024-12-25 18:25:40,779,881,923,852,766,4.51,-8.73,-0.98,-0.01,0.02,0.01
2024-12-25 18:25:40,775,877,923,850,765,4.53,-8.86,-1.14,-0.01,0.04,-0.02
2024-12-25 18:25:41,779,879,922,851,767,4.75,-8.85,-1.39,-0.07,0.02,-0.01
2024-12-25 18:25:41,777,881,921,851,768,4.43,-8.84,-1.10,-0.07,0.04,-0.03
2024-12-25 18:25:41,778,880,922,850,768,4.61,-8.84,-1.23,-0.05,0.04,-0.03
2024-12-25 18:25:41,777,878,922,851,767,4.68,-8.79,-1.17,-0.04,0.06,0.01
2024-12-25 18:25:41,777,880,921,849,767,4.48,-8.87,-1.14,0.02,0.07,-0.01
2024-12-25 18:25:42,780,881,922,852,767,4.47,-8.89,-1.24,-0.12,-0.03,-0.03
2024-12-25 18:25:42,777,880,921,850,766,4.90,-8.88,-1.19,0.04,0.04,-0.04
2024-12-25 18:25:42,779,881,921,851,767,4.68,-8.80,-0.98,0.02,0.01,-0.10
2024-12-25 18:25:42,779,880,923,850,769,4.73,-8.78,-1.12,-0.02,0.02,-0.02
2024-12-25 18:25:42,779,880,923,851,767,4.55,-8.62,-1.16,-0.06,0.00,-0.02
2024-12-25 18:25:43,780,880,924,853,767,4.83,-8.67,-1.00,-0.01,0.04,0.02
2024-12-25 18:25:43,778,880,923,851,767,4.71,-8.82,-1.02,-0.05,0.05,0.01
2024-12-25 18:25:43,779,879,922,851,767,4.64,-8.78,-0.94,-0.00,0.01,-0.04
2024-12-25 18:25:43,779,881,921,850,766,4.89,-8.88,-0.85,0.05,0.01,-0.02
2024-12-25 18:25:43,775,880,922,851,768,4.61,-8.66,-0.71,-0.04,0.03,-0.01
2024-12-25 18:25:43,780,883,922,851,768,4.73,-8.74,-0.80,-0.02,0.01,-0.04
2024-12-25 18:25:44,778,880,921,850,768,4.91,-8.77,-0.89,0.02,0.00,-0.01
2024-12-25 18:25:44,776,880,922,851,766,4.97,-8.64,-0.65,-0.07,0.03,0.03
2024-12-25 18:25:44,780,880,920,852,766,4.49,-8.77,-0.87,-0.03,0.01,-0.02
2024-12-25 18:25:44,778,882,920,850,767,5.02,-8.69,-0.81,-0.01,0.02,-0.02
2024-12-25 18:25:44,781,881,921,851,769,4.75,-8.76,-0.85,-0.04,0.03,-0.01
2024-12-25 18:25:45,775,879,921,851,765,4.94,-8.71,-0.67,-0.03,0.02,-0.01
2024-12-25 18:25:45,780,883,923,851,766,4.86,-8.77,-0.85,-0.04,0.05,-0.00
2024-12-25 18:25:45,779,881,921,848,768,4.74,-8.76,-0.82,-0.01,0.01,-0.02
2024-12-25 18:25:45,778,881,921,851,767,5.13,-8.97,-0.63,-0.01,0.04,0.02
2024-12-25 18:25:45,777,879,923,850,767,4.54,-8.08,-0.96,-0.05,-0.07,0.06
2024-12-25 18:25:46,777,880,920,851,766,4.87,-8.49,-1.12,0.07,-0.18,-0.02
2024-12-25 18:25:46,779,881,925,852,766,4.79,-9.20,-0.20,-0.01,0.10,-0.15
2024-12-25 18:25:46,778,879,922,850,767,5.58,-9.06,-0.76,-0.22,0.11,-0.07
2024-12-25 18:25:46,780,880,925,852,766,4.92,-9.00,-1.29,-0.18,0.01,-0.12
2024-12-25 18:25:46,777,877,922,849,765,5.45,-8.93,-0.92,-0.06,0.03,-0.10
2024-12-25 18:25:46,777,880,923,850,767,5.37,-8.60,-1.03,-0.05,0.02,-0.06
2024-12-25 18:25:47,778,881,920,850,766,5.03,-8.77,-0.87,0.01,0.04,-0.00
2024-12-25 18:25:47,776,881,921,850,767,4.95,-8.41,-1.05,0.00,-0.04,-0.03
2024-12-25 18:25:47,778,882,921,849,766,5.50,-8.42,-0.58,0.07,0.06,0.09
2024-12-25 18:25:47,779,880,921,851,767,4.92,-8.89,-1.08,-0.02,0.03,-0.09
2024-12-25 18:25:47,778,879,921,850,767,5.98,-8.55,-0.79,0.06,0.04,-0.10
2024-12-25 18:25:48,777,881,923,851,768,6.12,-8.48,-1.11,-0.08,0.01,-0.08
2024-12-25 18:25:48,778,881,920,851,767,5.66,-8.45,-1.03,0.03,0.07,0.00
