Timestamp,Flex1,Flex2,Flex3,Flex4,Flex5,AccelX,AccelY,AccelZ,GyroX,GyroY,GyroZ
2024-12-25 17:22:44,786,792,797,772,772,-2.49,2.59,9.85,-0.01,0.01,-0.07
2024-12-25 17:22:44,787,793,798,774,774,-2.60,2.46,9.86,0.04,0.00,-0.05
2024-12-25 17:22:44,788,792,797,773,772,-2.55,2.62,9.70,-0.04,0.04,-0.03
2024-12-25 17:22:44,784,791,796,772,771,-2.51,2.59,9.64,-0.06,0.01,-0.04
2024-12-25 17:22:44,786,791,797,773,772,-2.61,2.51,9.78,-0.05,0.06,0.03
2024-12-25 17:22:44,786,791,796,772,771,-2.64,2.54,9.79,-0.03,0.04,0.00
2024-12-25 17:22:44,788,792,799,774,772,-2.72,2.71,9.66,-0.04,0.02,-0.01
2024-12-25 17:22:44,786,791,797,774,772,-2.39,2.59,9.76,-0.08,-0.01,-0.06
2024-12-25 17:22:44,785,792,800,775,772,-2.82,2.59,9.75,-0.05,0.05,-0.07
2024-12-25 17:22:44,787,792,799,775,772,-2.55,2.47,9.79,-0.05,0.01,-0.09
2024-12-25 17:22:44,786,793,800,775,771,-2.19,2.51,9.88,0.01,-0.02,0.01
2024-12-25 17:22:44,786,793,800,775,771,-3.29,2.92,9.62,-0.34,0.18,0.08
2024-12-25 17:22:44,786,792,799,775,771,-2.86,2.31,9.84,0.20,-0.14,-0.21
2024-12-25 17:22:44,786,792,801,776,772,-2.60,2.35,9.79,-0.08,0.04,-0.05
2024-12-25 17:22:44,786,793,800,775,772,-2.60,2.48,9.65,-0.04,0.01,-0.03
2024-12-25 17:22:44,785,792,799,777,773,-2.78,2.55,9.44,-0.05,0.08,0.11
2024-12-25 17:22:44,786,791,800,776,771,-2.47,2.69,9.88,0.02,0.06,-0.03
2024-12-25 17:22:44,785,792,800,777,771,-2.86,2.59,9.69,-0.08,0.08,0.08
2024-12-25 17:22:44,786,792,800,776,771,-2.77,2.66,9.76,0.03,0.03,0.00
2024-12-25 17:22:44,786,791,799,777,771,-2.83,2.75,9.49,-0.07,0.13,0.10
2024-12-25 17:22:44,787,791,801,776,772,-2.90,3.00,9.85,-0.04,-0.01,-0.03
2024-12-25 17:22:44,787,792,800,776,771,-3.00,2.89,9.69,0.01,0.04,0.06
2024-12-25 17:22:44,785,791,801,776,772,-2.85,2.81,9.70,-0.05,0.05,0.01
2024-12-25 17:22:45,785,791,801,776,771,-2.82,2.77,9.39,-0.08,0.04,-0.00
2024-12-25 17:22:45,787,791,802,777,772,-2.90,2.75,9.54,-0.07,0.00,0.02
2024-12-25 17:22:45,786,795,808,778,773,-2.46,2.31,10.22,-0.68,-0.03,0.07
2024-12-25 17:22:45,787,795,820,782,773,-1.85,0.79,10.15,-0.55,-0.24,0.17
2024-12-25 17:22:45,788,797,817,783,772,-2.26,0.86,9.89,0.17,0.60,-0.17
2024-12-25 17:22:46,785,789,791,771,774,-3.07,2.25,9.99,1.00,-0.24,-0.32
2024-12-25 17:22:46,784,782,788,769,775,-2.47,3.27,10.00,0.12,0.05,-0.08
2024-12-25 17:22:46,781,784,794,767,768,-2.95,1.96,10.61,-1.24,-0.90,0.93
2024-12-25 17:22:46,783,825,885,826,793,2.20,0.84,10.35,-0.35,-2.52,1.26
2024-12-25 17:22:46,779,874,922,871,848,6.59,-1.24,8.04,0.41,-2.70,1.54
2024-12-25 17:22:47,774,885,937,892,869,5.15,-1.69,8.34,-0.11,0.00,1.79
2024-12-25 17:22:47,768,889,944,886,862,6.67,-2.36,8.77,-0.00,-0.46,0.02
2024-12-25 17:22:47,765,891,936,872,842,8.08,-1.35,7.50,1.17,-0.11,-0.31
2024-12-25 17:22:47,765,872,934,877,849,5.70,-2.07,7.75,0.25,0.33,0.14
2024-12-25 17:22:47,769,878,934,873,854,8.12,-3.20,8.20,-0.63,-0.43,0.29
2024-12-25 17:22:47,776,900,938,873,868,8.40,-2.43,7.31,0.62,-0.70,-0.09
2024-12-25 17:22:48,781,900,939,883,870,2.31,-1.22,2.26,0.89,-2.10,1.33
2024-12-25 17:22:48,779,897,941,880,867,14.10,7.10,3.83,0.45,-0.86,-2.34
2024-12-25 17:22:48,782,894,941,881,868,15.97,-3.46,1.92,-0.61,0.44,0.40
2024-12-25 17:22:48,780,891,940,881,863,4.77,-3.51,2.24,0.66,0.86,1.77
2024-12-25 17:22:48,783,892,940,878,860,6.53,9.71,2.45,0.59,-0.73,-1.46
2024-12-25 17:22:49,781,892,939,877,860,14.14,4.59,0.40,-2.25,-0.82,-1.49
2024-12-25 17:22:49,780,889,939,875,859,14.87,-2.57,-0.28,-0.48,0.41,1.14
2024-12-25 17:22:49,782,890,942,876,860,3.36,-1.09,2.43,1.36,1.09,1.22
2024-12-25 17:22:49,782,888,939,875,856,7.44,6.06,1.24,0.44,-1.27,-0.54
2024-12-25 17:22:49,784,891,941,874,857,12.48,5.84,0.82,-1.93,-1.47,-0.53
2024-12-25 17:22:49,783,886,939,877,856,13.95,-1.64,-1.57,-0.90,0.39,0.61
2024-12-25 17:22:50,781,886,937,875,853,7.29,-2.49,2.08,1.08,1.99,0.55
2024-12-25 17:22:50,782,889,937,875,851,4.55,1.35,3.06,0.90,-0.18,0.41
2024-12-25 17:22:50,783,886,938,874,853,11.10,7.59,1.22,-0.47,-1.32,-1.34
2024-12-25 17:22:50,784,886,940,872,852,14.90,2.79,-0.17,-1.31,-1.04,0.02
2024-12-25 17:22:50,783,887,936,874,853,12.03,-2.70,1.67,-0.19,1.25,1.00
2024-12-25 17:22:51,782,885,936,872,852,4.39,-2.11,1.85,1.11,0.51,1.19
2024-12-25 17:22:51,782,882,937,874,852,8.36,5.71,3.22,1.01,-0.61,-0.80
2024-12-25 17:22:51,783,884,938,875,850,13.38,5.48,1.30,-1.01,-0.33,-1.47
2024-12-25 17:22:51,782,883,938,874,850,13.78,-0.35,1.60,-1.16,0.28,0.71
2024-12-25 17:22:51,784,884,936,873,850,6.68,-3.03,1.85,0.58,1.09,1.64
2024-12-25 17:22:51,781,884,937,872,850,5.52,3.56,2.60,0.95,-1.03,-0.40
2024-12-25 17:22:52,782,887,936,871,850,11.93,5.98,2.91,-0.37,-1.07,-1.18
2024-12-25 17:22:52,783,885,935,873,853,14.07,2.54,1.97,-1.38,-0.80,0.00
2024-12-25 17:22:52,783,890,938,874,855,11.25,-2.92,1.02,-0.00,0.75,1.40
2024-12-25 17:22:52,781,903,941,874,851,3.83,-0.10,2.18,1.01,0.30,0.53
2024-12-25 17:22:52,780,905,933,868,846,11.43,4.99,3.07,0.29,-0.74,-1.03
2024-12-25 17:22:53,784,907,934,870,847,12.84,3.36,2.94,-1.07,-0.94,-0.21
2024-12-25 17:22:53,783,903,933,870,848,12.41,-2.36,2.18,-0.71,0.83,0.54
2024-12-25 17:22:53,781,902,931,869,846,4.33,-2.46,2.09,1.09,0.75,1.49
2024-12-25 17:22:53,782,902,934,869,847,7.67,4.81,3.27,1.29,-1.06,-0.84
2024-12-25 17:22:53,783,900,934,867,846,12.06,5.80,1.84,-0.96,-1.03,-1.08
2024-12-25 17:22:54,783,899,932,867,847,16.28,1.03,0.69,-1.42,0.49,-0.20
2024-12-25 17:22:54,780,902,930,866,843,9.87,-0.75,2.80,0.06,2.29,0.98
2024-12-25 17:22:54,782,900,931,865,842,2.77,0.04,2.83,1.16,-0.55,1.11
2024-12-25 17:22:54,782,898,929,865,841,10.76,6.60,3.32,-0.19,-2.06,-0.37
2024-12-25 17:22:54,786,898,930,864,843,15.28,4.04,2.05,-1.48,-0.88,-0.79
2024-12-25 17:22:54,785,898,931,864,842,13.03,-0.69,2.52,0.15,2.10,0.60
2024-12-25 17:22:55,783,896,931,865,842,4.11,-1.75,2.33,0.73,0.77,1.76
2024-12-25 17:22:55,783,894,929,865,842,6.41,6.24,3.63,0.76,-2.07,0.03
2024-12-25 17:22:55,786,895,931,865,843,11.72,5.24,2.56,-1.68,-0.48,-1.65
2024-12-25 17:22:55,787,897,930,868,844,15.90,0.09,2.57,-1.30,0.23,0.31
2024-12-25 17:22:55,784,896,932,866,842,6.01,-2.21,2.09,0.51,0.59,2.33
2024-12-25 17:22:56,784,897,929,869,848,5.59,1.94,2.40,1.27,-1.73,-0.05
2024-12-25 17:22:56,786,894,933,868,846,12.71,6.31,2.07,-0.80,-0.86,-1.48
2024-12-25 17:22:56,786,892,929,868,844,17.66,2.89,-0.23,-1.34,-0.50,-0.54
2024-12-25 17:22:56,785,895,930,866,843,9.44,-1.97,0.21,0.53,1.46,1.80
2024-12-25 17:22:56,783,896,932,867,846,3.65,0.05,1.84,1.07,0.08,0.70
2024-12-25 17:22:56,783,894,934,866,845,8.91,6.85,3.27,0.51,0.34,-1.70
2024-12-25 17:22:57,785,894,931,866,844,14.12,4.64,2.68,-1.24,-0.20,-0.92
2024-12-25 17:22:57,783,893,928,866,843,13.31,-0.96,3.09,-0.75,0.61,1.06
2024-12-25 17:22:57,783,893,931,864,844,3.83,-1.23,2.21,1.37,0.89,1.51
2024-12-25 17:22:57,783,893,931,865,844,7.49,5.31,4.20,0.42,-0.85,-0.63
2024-12-25 17:22:57,785,893,930,865,846,11.92,5.01,2.38,-0.51,-0.51,-1.64
2024-12-25 17:22:58,787,893,931,865,842,15.04,1.45,2.83,-1.15,0.08,0.48
2024-12-25 17:22:58,783,892,931,864,841,9.25,-2.18,1.86,0.30,1.02,1.81
2024-12-25 17:22:58,783,892,929,865,843,5.39,0.91,3.03,1.48,0.03,0.20
2024-12-25 17:22:58,784,892,930,868,843,10.29,5.42,3.14,0.01,-1.39,-1.32
2024-12-25 17:22:58,786,894,930,863,843,12.58,4.42,3.38,-1.16,-0.13,-1.17
2024-12-25 17:22:58,785,894,930,864,843,12.52,0.57,3.17,-1.42,0.30,0.35
2024-12-25 17:22:59,786,895,930,866,843,7.12,-1.74,2.68,0.55,0.78,1.88
2024-12-25 17:22:59,787,891,930,867,845,4.64,3.19,2.79,1.20,-0.98,-0.28
2024-12-25 17:22:59,787,892,930,865,842,11.12,6.56,4.09,-0.22,-0.09,-1.36
2024-12-25 17:22:59,786,893,930,864,842,16.18,3.46,3.33,-1.55,-0.48,-0.26
2024-12-25 17:22:59,786,893,930,865,842,8.96,-1.71,2.12,0.03,1.24,1.19
2024-12-25 17:23:00,786,895,929,863,841,2.74,0.91,2.52,1.39,-0.29,0.75
2024-12-25 17:23:00,787,893,929,864,843,11.35,8.98,4.07,0.45,-0.99,-1.33
2024-12-25 17:23:00,787,893,928,865,844,13.13,5.88,3.47,-1.27,-0.44,-0.67
2024-12-25 17:23:00,787,893,929,864,841,13.24,-0.49,3.25,-0.55,1.03,0.85
2024-12-25 17:23:00,784,893,930,865,841,4.92,0.32,3.03,1.16,0.98,1.43
2024-12-25 17:23:01,786,893,931,865,842,7.46,6.30,3.54,0.55,-0.99,-0.49
2024-12-25 17:23:01,787,891,934,867,843,11.49,6.41,3.49,-2.35,-0.83,-1.55
2024-12-25 17:23:01,786,890,931,864,844,14.00,1.69,3.74,-1.06,0.13,0.23
2024-12-25 17:23:01,786,892,930,863,843,7.71,-1.16,2.61,0.76,1.35,1.24
2024-12-25 17:23:01,785,891,928,863,840,5.08,3.06,3.25,1.67,-0.00,0.33
2024-12-25 17:23:01,787,891,928,864,843,9.32,8.03,3.68,-0.21,-0.79,-0.96
2024-12-25 17:23:02,789,893,930,865,842,12.22,6.31,3.58,-0.96,-0.17,-0.70
2024-12-25 17:23:02,788,891,931,863,842,13.24,1.03,3.00,-0.93,0.23,0.71
2024-12-25 17:23:02,787,891,931,864,840,5.74,-1.09,2.98,0.89,0.98,1.21
2024-12-25 17:23:02,785,889,927,864,840,3.29,4.57,2.93,1.22,-0.98,0.28
2024-12-25 17:23:02,787,890,930,864,844,11.87,8.23,3.91,-0.54,-0.43,-1.57
2024-12-25 17:23:03,787,891,930,864,843,13.18,4.13,2.11,-1.75,-0.26,0.10
2024-12-25 17:23:03,786,892,930,864,843,10.30,-1.24,2.38,0.11,1.22,1.36
2024-12-25 17:23:03,787,893,931,864,841,4.81,-0.19,2.22,1.25,0.58,0.80
2024-12-25 17:23:03,786,890,929,864,843,8.04,8.43,4.04,1.03,-1.00,-1.57
2024-12-25 17:23:03,786,890,928,865,841,13.70,4.52,3.40,-1.47,-1.13,-0.47
2024-12-25 17:23:03,787,889,931,863,843,10.97,-2.01,2.27,-0.39,0.77,1.44
2024-12-25 17:23:04,786,890,929,864,842,5.87,-0.37,1.27,0.76,-0.41,0.93
2024-12-25 17:23:04,788,892,929,864,841,12.64,9.21,3.39,0.96,-0.10,-1.57
2024-12-25 17:23:04,788,890,927,864,843,16.34,0.26,1.78,-1.25,0.22,-0.36
2024-12-25 17:23:04,783,890,929,865,840,8.62,-2.70,1.83,0.07,1.06,1.32
2024-12-25 17:23:04,785,890,931,864,843,4.02,2.23,1.67,0.79,-0.36,0.34
2024-12-25 17:23:05,787,892,931,864,842,12.56,5.88,1.77,0.24,-0.35,-1.61
2024-12-25 17:23:05,789,890,931,866,844,16.41,-0.11,3.73,-1.41,-0.29,0.32
2024-12-25 17:23:05,786,892,930,866,843,3.30,-1.04,1.27,1.23,1.07,1.42
2024-12-25 17:23:05,786,890,930,867,846,6.33,6.02,1.01,0.03,-2.04,-0.25
2024-12-25 17:23:05,786,890,929,866,846,16.06,5.41,1.37,-0.86,-0.99,-1.00
2024-12-25 17:23:05,788,890,930,866,844,11.58,-0.90,1.57,-0.51,0.84,0.51
2024-12-25 17:23:06,787,892,929,866,844,6.44,-0.77,2.01,0.60,1.04,1.10
2024-12-25 17:23:06,787,893,931,866,845,7.15,4.88,1.16,0.59,-0.92,0.64
2024-12-25 17:23:06,789,889,930,866,844,11.80,7.81,3.76,-0.13,0.25,-1.96
2024-12-25 17:23:06,787,891,928,869,845,15.52,-0.23,1.78,-1.11,0.81,-0.05
2024-12-25 17:23:06,785,891,930,867,846,5.90,-2.70,-0.01,0.63,0.74,2.15
2024-12-25 17:23:07,789,889,931,867,847,5.05,6.14,2.21,1.47,-0.99,-0.27
2024-12-25 17:23:07,789,889,930,869,848,13.75,6.86,1.42,-1.75,-0.65,-2.05
2024-12-25 17:23:07,787,888,931,869,847,16.58,0.07,1.90,-1.29,0.56,0.15
2024-12-25 17:23:07,784,889,926,867,845,5.75,-0.31,1.93,0.18,0.97,1.79
2024-12-25 17:23:07,786,889,927,864,844,4.52,3.57,3.24,0.47,-0.72,-0.32
2024-12-25 17:23:08,788,888,928,864,846,12.50,5.86,3.53,-0.63,-0.87,-1.17
2024-12-25 17:23:08,789,890,930,868,846,12.77,2.47,1.80,-1.59,-0.52,-0.53
2024-12-25 17:23:08,787,889,931,866,844,12.34,1.46,2.95,-1.06,0.40,0.49
2024-12-25 17:23:08,786,889,929,865,844,6.45,-1.38,2.28,0.59,0.47,1.10
2024-12-25 17:23:08,786,889,928,865,844,7.43,3.70,2.21,1.02,-1.11,-0.30
2024-12-25 17:23:08,788,888,931,868,845,10.78,6.84,3.11,-0.82,-0.85,-1.24
2024-12-25 17:23:09,787,891,931,868,846,16.23,1.85,1.50,-1.21,0.08,0.01
2024-12-25 17:23:09,787,890,930,865,843,9.15,-1.31,1.75,0.78,0.67,1.55
2024-12-25 17:23:09,785,886,930,864,843,4.95,1.78,0.94,1.57,-0.24,0.38
2024-12-25 17:23:09,786,889,930,866,844,10.01,9.39,2.13,0.84,-0.20,-2.00
2024-12-25 17:23:09,788,888,929,866,843,16.75,4.66,2.00,-1.66,-0.61,0.05
2024-12-25 17:23:10,786,889,929,866,843,9.42,-1.22,0.77,0.09,1.09,1.75
2024-12-25 17:23:10,789,889,928,866,845,4.25,0.79,1.64,1.35,0.10,1.24
2024-12-25 17:23:10,787,889,929,866,844,9.02,8.16,2.64,0.42,-0.91,-1.59
2024-12-25 17:23:10,788,888,928,866,844,14.46,4.39,1.09,-1.34,-0.74,-0.95
2024-12-25 17:23:10,788,888,929,866,843,13.31,-0.69,1.47,-0.30,0.69,1.02
2024-12-25 17:23:10,786,890,930,866,842,4.83,-0.32,2.53,1.03,0.42,1.48
2024-12-25 17:23:11,786,889,929,865,845,8.36,6.43,2.26,0.80,-0.77,-0.79
2024-12-25 17:23:11,787,888,928,866,845,15.40,4.60,0.71,-0.43,-0.58,-1.12
2024-12-25 17:23:11,789,889,929,866,844,13.31,-0.54,2.42,-0.70,0.21,0.79
2024-12-25 17:23:11,786,888,929,866,842,4.78,-2.19,0.97,0.55,0.44,1.27
2024-12-25 17:23:11,786,889,927,864,844,7.74,8.13,1.06,-0.04,-0.76,-1.43
2024-12-25 17:23:12,787,887,928,864,843,17.61,1.68,1.05,-1.10,-0.76,-0.41
2024-12-25 17:23:12,786,891,930,867,843,8.76,-3.28,1.06,0.27,1.11,1.67
2024-12-25 17:23:12,787,889,929,867,844,3.21,1.18,1.49,1.41,-0.20,0.66
2024-12-25 17:23:12,790,887,929,867,846,9.15,6.38,-0.13,-0.49,-1.32,-1.71
2024-12-25 17:23:12,790,889,930,867,844,16.98,3.79,0.93,-1.13,-0.35,-0.75
2024-12-25 17:23:12,788,888,930,866,844,12.80,-2.76,0.20,-0.47,0.91,1.41
2024-12-25 17:23:13,787,889,929,865,843,1.18,-0.27,1.88,1.23,0.15,0.95
2024-12-25 17:23:13,789,888,930,866,845,11.25,7.55,0.91,-0.09,-0.73,-1.64
2024-12-25 17:23:13,788,890,929,866,843,15.97,3.82,1.59,-0.96,-0.52,-0.64
2024-12-25 17:23:13,789,889,927,866,843,14.30,-1.17,0.62,-0.75,0.78,1.12
2024-12-25 17:23:13,786,887,926,867,842,1.95,-0.99,0.84,1.70,0.76,1.21
2024-12-25 17:23:14,788,888,929,866,844,9.30,7.01,1.19,0.41,-1.04,-1.09
2024-12-25 17:23:14,788,889,930,866,845,15.60,3.59,1.57,-1.41,-1.03,-0.47
2024-12-25 17:23:14,788,887,929,867,843,12.64,-2.09,1.70,-0.18,1.02,1.15
2024-12-25 17:23:14,786,888,928,867,843,2.87,-2.43,0.96,1.47,0.73,1.61
2024-12-25 17:23:14,787,889,928,866,842,6.56,7.26,2.33,0.68,-0.86,-1.52
2024-12-25 17:23:15,789,888,931,864,845,15.79,4.13,0.42,-1.76,-0.76,-1.39
2024-12-25 17:23:15,787,887,929,863,842,13.32,-1.82,1.38,-0.59,1.53,0.75
2024-12-25 17:23:15,787,886,929,864,842,2.65,-1.50,0.95,1.75,0.21,1.85
2024-12-25 17:23:15,785,888,924,864,841,9.50,7.75,1.23,0.22,-1.58,-0.94
2024-12-25 17:23:15,789,888,928,862,846,13.85,3.67,1.13,-1.22,-0.69,-1.09
2024-12-25 17:23:15,789,890,927,867,845,14.77,-1.32,0.54,-0.76,0.52,1.03
2024-12-25 17:23:16,788,889,928,864,846,6.42,-1.94,0.34,1.37,0.95,1.66
2024-12-25 17:23:16,787,889,927,863,845,8.11,6.43,2.75,1.06,-1.20,-0.69
2024-12-25 17:23:16,788,887,927,864,845,15.12,2.90,1.95,-1.08,-1.28,-1.10
2024-12-25 17:23:16,787,888,928,863,844,13.76,-1.13,0.67,-0.84,0.41,0.76
2024-12-25 17:23:16,787,890,928,863,844,7.12,-3.06,0.91,1.04,0.92,1.66
2024-12-25 17:23:17,788,889,929,864,843,4.93,3.35,2.55,1.45,-0.76,-0.59
2024-12-25 17:23:17,788,890,927,865,844,13.75,4.91,2.22,-1.27,-1.50,-1.15
2024-12-25 17:23:17,788,887,928,864,844,14.86,-1.82,0.73,-1.30,0.11,0.23
2024-12-25 17:23:17,788,888,927,865,845,8.01,-2.77,1.07,0.78,0.60,1.77
2024-12-25 17:23:17,788,887,928,865,845,5.67,3.19,3.11,0.91,-0.08,-0.34
2024-12-25 17:23:17,788,888,928,864,845,11.47,4.21,1.26,-0.71,-0.93,-1.93
2024-12-25 17:23:18,788,886,927,865,844,16.47,0.25,1.59,-2.15,0.02,-0.11
2024-12-25 17:23:18,788,888,929,865,843,7.26,-3.34,-0.28,0.22,0.68,1.71
2024-12-25 17:23:18,787,887,927,864,843,4.72,2.61,2.59,1.03,-0.10,0.10
2024-12-25 17:23:18,789,887,928,865,844,11.71,5.30,2.78,-0.61,-0.59,-1.71
2024-12-25 17:23:18,790,887,929,864,845,14.30,0.74,1.80,-1.78,0.28,-0.09
2024-12-25 17:23:19,786,888,926,865,845,7.80,-2.89,0.86,0.64,1.00,1.36
2024-12-25 17:23:19,787,888,928,864,843,3.84,1.81,2.84,1.38,0.09,0.67
2024-12-25 17:23:19,787,887,927,863,844,9.10,5.94,3.53,-0.22,-0.29,-1.63
2024-12-25 17:23:19,787,886,930,864,844,16.16,1.13,1.70,-1.46,-0.55,-0.28
2024-12-25 17:23:19,787,887,929,863,844,10.62,-2.09,1.80,0.12,0.71,1.53
2024-12-25 17:23:20,788,889,930,864,843,5.77,0.70,3.30,0.73,0.75,0.79
2024-12-25 17:23:20,790,884,927,864,843,9.05,4.96,3.35,0.26,0.08,-1.78
2024-12-25 17:23:20,791,887,927,866,845,15.71,2.50,2.44,-1.23,-1.08,-0.51
2024-12-25 17:23:20,789,886,928,866,845,11.10,-2.79,1.18,0.17,0.54,1.35
2024-12-25 17:23:20,788,885,927,864,842,3.49,-0.10,1.96,0.91,-0.12,0.77
2024-12-25 17:23:20,790,887,926,867,845,10.29,6.43,3.57,0.10,0.07,-1.79
2024-12-25 17:23:21,788,888,929,864,844,15.72,2.04,2.15,-1.45,-0.68,-0.34
2024-12-25 17:23:21,789,887,927,866,845,10.65,-1.50,0.91,0.11,0.65,1.46
2024-12-25 17:23:21,786,887,926,866,845,3.46,0.22,2.98,1.20,-0.06,0.82
2024-12-25 17:23:21,786,888,928,865,845,9.80,6.34,3.22,0.00,-0.30,-1.73
2024-12-25 17:23:21,788,887,927,867,846,17.67,3.25,2.44,-1.23,-0.35,-0.41
2024-12-25 17:23:22,790,888,927,866,844,10.01,-2.18,1.42,-0.03,0.64,1.67
2024-12-25 17:23:22,788,888,929,867,846,6.04,0.09,2.28,1.34,0.22,0.98
2024-12-25 17:23:22,788,886,931,867,846,8.36,5.51,3.77,0.14,-0.33,-1.29
2024-12-25 17:23:22,791,886,928,865,847,13.72,4.39,3.05,-1.17,-0.93,-1.19
2024-12-25 17:23:22,788,887,927,864,845,14.62,-0.82,1.23,-0.63,-0.16,1.27
2024-12-25 17:23:22,788,888,927,866,846,5.31,-1.18,1.44,1.13,0.41,1.88
2024-12-25 17:23:23,789,886,928,865,845,7.37,4.15,2.59,1.04,-1.41,-0.80
2024-12-25 17:23:23,789,888,928,866,846,13.31,3.66,2.34,-0.78,-0.39,-1.24
2024-12-25 17:23:23,787,886,930,866,846,13.51,-1.49,0.90,-0.77,0.37,0.44
2024-12-25 17:23:23,787,886,926,863,846,5.60,-2.63,0.79,0.69,0.56,1.38
2024-12-25 17:23:23,789,885,928,867,846,8.59,4.92,2.57,0.81,-0.66,-0.98
2024-12-25 17:23:24,789,887,927,865,848,14.27,4.94,1.41,-1.00,-0.53,-1.04
2024-12-25 17:23:24,788,889,929,865,846,12.76,-2.43,1.28,-0.77,0.69,0.96
2024-12-25 17:23:24,788,885,926,866,845,4.91,-1.61,1.84,0.99,0.46,1.45
2024-12-25 17:23:24,788,886,928,865,845,8.00,5.22,3.07,0.16,-0.39,-0.99
2024-12-25 17:23:24,790,887,927,866,846,16.17,4.42,1.72,-1.25,-0.39,-1.05
2024-12-25 17:23:24,788,887,928,866,846,11.99,-3.67,1.64,-0.36,0.84,1.08
2024-12-25 17:23:25,787,888,926,865,845,4.23,-1.24,2.38,1.30,-0.21,1.58
2024-12-25 17:23:25,789,886,926,865,846,8.34,5.94,3.57,0.47,-0.30,-1.96
2024-12-25 17:23:25,790,887,926,865,846,15.43,3.54,1.70,-0.87,-0.42,-0.86
2024-12-25 17:23:25,788,887,928,866,843,10.14,-2.88,2.43,-0.55,1.00,1.42
2024-12-25 17:23:25,788,886,928,864,844,2.43,-0.14,3.07,0.82,-0.68,0.95
2024-12-25 17:23:26,788,885,926,865,844,11.66,5.98,3.13,-0.57,-0.70,-1.75
2024-12-25 17:23:26,788,885,927,864,845,16.90,1.78,1.92,-1.12,-0.36,-0.49
2024-12-25 17:23:26,788,887,928,865,845,7.87,-3.39,2.56,-0.47,0.97,1.67
2024-12-25 17:23:26,789,886,930,866,847,2.33,1.24,2.49,1.05,-0.72,0.15
2024-12-25 17:23:26,791,888,929,864,846,13.62,6.59,2.64,-0.24,-0.06,-2.21
2024-12-25 17:23:27,789,885,928,864,844,13.83,-0.36,2.37,-1.67,0.31,0.05
2024-12-25 17:23:27,785,887,927,867,844,5.78,-4.43,1.10,0.96,0.12,1.69
2024-12-25 17:23:27,788,884,929,866,847,6.69,6.06,1.21,1.45,-1.39,-0.95
2024-12-25 17:23:27,789,887,928,865,845,15.92,7.38,2.49,-1.29,-0.95,-0.67
2024-12-25 17:23:27,790,887,926,865,845,11.83,-3.76,1.23,-0.60,0.99,1.05
2024-12-25 17:23:27,789,886,926,865,844,4.13,-2.19,1.63,1.10,0.14,1.89
2024-12-25 17:23:28,787,885,927,865,845,7.34,6.88,1.80,1.09,0.47,-1.86
2024-12-25 17:23:28,787,885,925,865,848,15.73,4.58,1.64,-0.98,-0.56,-1.06
2024-12-25 17:23:28,788,886,928,866,845,11.65,-3.22,1.28,-0.50,0.69,1.50
2024-12-25 17:23:28,790,887,927,866,845,2.93,-0.60,2.18,1.45,-0.21,1.21
2024-12-25 17:23:28,788,885,928,863,845,10.48,7.03,1.86,0.01,-0.85,-1.84
2024-12-25 17:23:29,789,884,926,864,843,16.15,2.42,2.15,-1.46,-0.87,-0.41
2024-12-25 17:23:29,790,886,929,865,844,10.72,-2.10,0.48,-0.06,1.00,1.91
2024-12-25 17:23:29,790,886,928,865,845,2.73,0.25,0.74,1.46,-0.27,0.27
2024-12-25 17:23:29,791,887,928,864,846,11.58,5.87,3.25,0.66,0.13,-1.82
2024-12-25 17:23:29,790,887,926,865,847,12.50,2.92,2.03,-1.56,-0.62,-0.39
2024-12-25 17:23:29,791,886,927,866,845,12.94,-2.58,0.67,-0.38,0.78,1.11
2024-12-25 17:23:30,787,886,929,863,845,4.14,-1.46,2.53,1.27,0.83,1.51
2024-12-25 17:23:30,789,885,929,865,846,7.39,5.65,3.14,0.69,-0.88,-1.28
2024-12-25 17:23:30,789,887,930,866,844,16.53,2.61,2.27,-1.60,-0.94,-0.98
2024-12-25 17:23:30,790,888,927,864,845,12.67,-2.64,1.04,-0.23,0.45,1.29
2024-12-25 17:23:30,789,886,927,864,845,4.16,-0.92,1.83,1.20,0.46,1.14
2024-12-25 17:23:31,789,887,928,865,846,8.40,5.02,2.93,0.46,-1.33,-1.33
2024-12-25 17:23:31,791,886,928,864,845,14.94,3.06,1.57,-1.50,-0.37,-1.10
2024-12-25 17:23:31,790,885,926,864,846,13.23,-1.09,1.02,-0.73,0.32,0.88
2024-12-25 17:23:31,787,887,926,864,845,5.77,-1.71,1.53,1.12,1.04,1.45
2024-12-25 17:23:31,786,886,925,865,846,6.74,4.24,2.86,0.73,-1.06,-0.50
2024-12-25 17:23:32,788,887,927,865,845,13.76,4.65,2.88,-0.92,-0.63,-1.31
2024-12-25 17:23:32,789,889,928,865,847,13.20,-0.90,2.01,-1.44,0.18,0.50
2024-12-25 17:23:32,789,885,926,864,844,7.02,-2.65,1.61,0.98,0.67,1.75
2024-12-25 17:23:32,789,886,928,863,843,5.16,3.79,2.87,0.89,-0.85,-0.38
2024-12-25 17:23:32,788,886,928,863,845,17.14,5.03,1.41,-0.99,-1.03,-1.64
2024-12-25 17:23:32,789,885,927,866,846,13.95,-2.14,1.70,-0.86,0.40,0.66
2024-12-25 17:23:33,788,886,930,864,846,4.30,-1.45,2.29,0.92,0.78,1.41
2024-12-25 17:23:33,787,886,929,865,846,6.02,5.32,2.54,0.51,-0.37,-0.80
2024-12-25 17:23:33,789,886,926,865,845,15.43,3.18,2.18,-0.74,-0.61,-0.85
2024-12-25 17:23:33,788,886,927,864,847,12.51,-2.78,1.93,-0.52,0.66,1.06
2024-12-25 17:23:33,787,887,927,865,845,4.81,-0.69,2.45,1.06,0.80,1.27
2024-12-25 17:23:34,789,885,928,864,845,7.94,4.08,2.55,0.54,-1.14,-0.97
2024-12-25 17:23:34,791,889,927,864,846,12.16,2.84,2.71,-1.12,-0.48,-1.09
2024-12-25 17:23:34,788,885,927,864,846,14.61,-0.68,2.26,-0.78,0.36,0.37
2024-12-25 17:23:34,789,887,925,864,845,6.22,-1.52,2.12,0.69,0.58,1.47
2024-12-25 17:23:34,789,885,926,863,846,6.25,4.08,2.44,0.55,-1.11,-0.46
2024-12-25 17:23:34,790,885,927,865,844,14.77,5.31,2.52,-0.62,-0.78,-1.21
2024-12-25 17:23:35,789,885,928,865,844,13.20,-1.07,2.49,-0.86,0.27,0.58
2024-12-25 17:23:35,786,887,924,865,843,5.12,-1.33,2.21,0.62,0.82,1.18
2024-12-25 17:23:35,789,886,927,866,844,6.33,5.79,2.41,0.44,-0.96,-0.85
2024-12-25 17:23:35,789,885,925,866,845,14.07,5.29,2.69,-0.99,-0.49,-0.95
2024-12-25 17:23:35,789,886,927,866,844,13.21,-2.18,2.42,-0.60,0.50,0.83
2024-12-25 17:23:36,786,886,926,864,843,5.36,-1.06,3.04,0.78,0.93,1.30
2024-12-25 17:23:36,787,884,924,864,843,6.43,2.47,2.53,0.51,-1.19,-0.13
2024-12-25 17:23:36,789,886,927,863,844,14.37,8.07,2.43,-0.17,-0.22,-1.78
2024-12-25 17:23:36,789,886,927,863,845,13.52,-0.19,2.21,-1.14,0.51,0.30
2024-12-25 17:23:36,790,888,928,866,844,6.03,-2.45,2.36,0.77,0.86,1.62
2024-12-25 17:23:36,790,887,928,865,844,5.80,5.44,1.44,0.86,-1.43,-0.57
2024-12-25 17:23:37,789,886,927,864,844,14.82,7.74,1.03,-1.35,-0.95,-1.62
2024-12-25 17:23:37,788,886,929,863,843,12.96,-2.12,0.35,-0.94,0.59,0.50
2024-12-25 17:23:37,790,886,928,863,844,6.87,-1.70,0.61,1.43,1.13,1.05
2024-12-25 17:23:37,788,885,926,864,844,5.27,9.25,2.72,1.31,-0.87,-1.38
2024-12-25 17:23:37,789,888,929,865,845,16.61,5.93,0.63,-1.83,-1.71,-0.45
2024-12-25 17:23:38,788,886,926,865,843,9.98,-2.99,0.87,-0.09,0.79,1.45
2024-12-25 17:23:38,788,884,925,866,842,1.76,2.50,1.38,1.42,-0.26,0.48
2024-12-25 17:23:38,787,885,927,866,844,14.97,8.78,1.58,-0.69,-0.37,-1.75
2024-12-25 17:23:38,789,885,926,866,843,13.15,-1.47,1.28,-1.33,0.23,0.80
2024-12-25 17:23:38,786,887,927,864,843,5.78,-2.52,1.44,1.10,0.48,1.85
2024-12-25 17:23:39,787,887,927,864,845,9.08,6.67,2.79,0.72,-1.21,-0.74
2024-12-25 17:23:39,787,884,925,864,843,14.90,3.88,0.77,-1.27,-0.71,-0.26
2024-12-25 17:23:39,787,886,928,863,842,10.09,-4.55,1.96,-0.22,1.15,0.58
2024-12-25 17:23:39,788,886,926,865,844,5.43,-0.07,1.76,1.60,0.25,0.80
2024-12-25 17:23:39,789,885,929,864,845,10.21,5.42,2.56,-0.14,-1.43,-1.29
2024-12-25 17:23:39,789,882,927,864,842,16.11,1.40,1.52,-1.74,-0.87,0.13
2024-12-25 17:23:40,789,886,926,865,843,9.15,-3.38,0.70,-0.03,0.80,1.40
2024-12-25 17:23:40,787,885,925,864,843,4.65,-0.69,2.76,1.65,-0.16,0.90
2024-12-25 17:23:40,789,886,926,865,844,8.15,7.49,3.52,0.40,-0.24,-1.81
2024-12-25 17:23:40,788,886,927,864,844,15.45,4.15,1.65,-1.73,-1.17,-0.35
2024-12-25 17:23:40,788,886,927,864,841,9.97,-4.09,1.98,-0.30,0.58,0.59
2024-12-25 17:23:41,788,885,926,863,842,6.95,0.08,2.76,1.14,0.06,1.08
2024-12-25 17:23:41,788,884,926,864,843,9.31,8.03,3.43,0.13,-0.25,-1.34
2024-12-25 17:23:41,789,885,926,863,844,15.48,3.56,1.20,-1.45,-1.25,-0.58
2024-12-25 17:23:41,788,886,927,864,843,11.43,-2.47,1.15,-0.08,1.40,1.66
2024-12-25 17:23:41,786,886,926,864,844,1.66,0.47,1.42,1.98,0.40,0.91
2024-12-25 17:23:41,789,886,926,864,843,9.31,7.00,3.19,-0.25,-0.88,-1.44
2024-12-25 17:23:42,789,881,926,862,844,17.87,2.04,1.78,-1.72,-0.66,-0.49
2024-12-25 17:23:42,788,886,928,863,842,9.52,-3.38,0.95,-0.07,1.11,1.69
2024-12-25 17:23:42,786,885,928,865,843,3.27,-0.56,2.26,1.60,-0.38,0.96
2024-12-25 17:23:42,786,884,926,866,846,10.34,6.10,2.88,0.18,-0.92,-1.82
2024-12-25 17:23:42,786,883,927,865,848,16.92,2.65,1.61,-1.52,-0.41,-0.68
2024-12-25 17:23:43,790,884,928,863,848,11.59,-3.25,1.62,-0.63,1.07,1.31
2024-12-25 17:23:43,794,885,928,865,847,3.25,-1.51,1.92,1.03,0.12,1.30
2024-12-25 17:23:43,797,884,930,866,848,10.27,7.37,3.49,0.52,-0.77,-1.73
2024-12-25 17:23:43,795,885,927,865,847,14.52,3.98,1.70,-1.54,-1.05,-0.66
2024-12-25 17:23:43,791,885,929,866,847,13.78,-2.85,1.70,-1.17,0.97,1.24
2024-12-25 17:23:44,791,886,930,866,846,4.39,-2.12,2.09,0.96,0.63,1.52
2024-12-25 17:23:44,801,884,927,865,847,8.25,6.85,3.88,1.06,-1.09,-1.94
2024-12-25 17:23:44,811,883,928,864,845,12.78,3.93,3.19,-1.25,-1.49,-0.71
2024-12-25 17:23:44,806,884,926,866,845,12.68,-2.67,2.54,-0.48,0.89,0.94
2024-12-25 17:23:44,801,886,926,865,846,3.68,-0.91,2.95,1.12,0.83,1.46
2024-12-25 17:23:44,801,884,928,863,848,10.84,6.29,2.72,0.40,-2.00,-1.47
2024-12-25 17:23:45,800,886,927,865,845,15.53,4.42,1.07,-1.32,-0.91,-1.03
2024-12-25 17:23:45,796,884,924,865,844,12.19,-1.58,2.19,-0.86,0.91,0.73
2024-12-25 17:23:45,794,887,925,864,842,5.69,-1.23,3.30,1.04,0.94,1.14
2024-12-25 17:23:45,794,887,926,863,842,6.48,3.73,1.66,0.76,-2.68,0.26
2024-12-25 17:23:45,793,884,924,864,843,11.45,6.06,1.61,-0.76,-0.52,-1.44
2024-12-25 17:23:46,793,884,928,863,841,13.99,0.41,0.89,-1.16,1.11,0.04
2024-12-25 17:23:46,792,887,924,864,843,7.78,-3.41,0.95,0.52,0.63,1.45
2024-12-25 17:23:46,792,884,925,863,842,5.87,4.92,1.92,1.64,-0.90,-0.16
2024-12-25 17:23:46,790,886,926,864,842,14.64,5.78,1.27,-1.18,-0.90,-0.73
2024-12-25 17:23:46,793,885,925,864,841,14.23,-2.07,1.39,-0.94,1.12,0.58
2024-12-25 17:23:46,793,884,926,863,841,5.60,-1.94,1.75,1.19,0.68,1.27
2024-12-25 17:23:47,792,884,928,863,842,7.90,5.69,4.85,1.00,0.01,-1.05
2024-12-25 17:23:47,792,885,925,865,843,12.84,5.18,3.01,-1.28,-0.97,-0.84
2024-12-25 17:23:47,793,885,926,865,842,13.35,-0.03,2.76,-1.27,-0.11,0.29
2024-12-25 17:23:47,796,885,929,865,844,7.06,-2.86,1.63,1.01,0.70,1.81
2024-12-25 17:23:47,792,884,928,865,841,6.23,5.96,5.20,1.78,0.03,-0.84
2024-12-25 17:23:48,794,884,926,865,841,13.20,5.04,3.92,-1.26,-1.09,-0.52
2024-12-25 17:23:48,792,882,925,863,842,13.10,-2.38,3.14,-0.79,0.06,0.64
2024-12-25 17:23:48,792,885,926,861,843,5.14,-2.30,2.82,0.87,0.31,1.35
2024-12-25 17:23:48,794,885,925,863,841,7.91,3.96,2.71,0.67,-1.69,-1.06
2024-12-25 17:23:48,793,887,926,862,842,13.90,5.14,1.42,-0.79,0.08,-1.11
2024-12-25 17:23:48,792,884,925,864,841,15.06,-1.39,1.04,-0.77,1.14,-0.21
2024-12-25 17:23:49,794,884,928,862,842,7.36,-1.14,1.51,1.23,1.14,2.12
2024-12-25 17:23:49,793,886,928,863,842,6.36,5.46,2.86,1.23,-1.20,0.11
2024-12-25 17:23:49,793,885,925,861,841,11.61,5.09,2.20,-1.19,-1.26,-1.45
2024-12-25 17:23:49,791,885,929,862,841,16.87,0.40,1.02,-1.40,0.23,0.38
2024-12-25 17:23:49,790,885,926,862,843,7.37,-2.31,1.07,0.42,0.78,1.80
2024-12-25 17:23:50,791,884,925,864,847,4.40,1.73,2.50,1.40,-0.25,-0.15
2024-12-25 17:23:50,787,884,927,868,854,12.78,6.72,2.69,-0.30,0.07,-1.43
2024-12-25 17:23:50,789,883,928,867,855,14.32,0.41,0.77,-1.62,-0.28,0.08
2024-12-25 17:23:50,789,886,928,870,856,8.49,-3.32,0.11,0.64,0.85,1.58
2024-12-25 17:23:50,792,886,929,868,852,3.85,2.15,1.80,1.24,-0.76,-0.51
2024-12-25 17:23:51,790,885,928,866,851,12.51,7.49,1.09,-0.75,-0.73,-1.54
2024-12-25 17:23:51,788,884,928,867,851,13.76,0.15,-0.23,-1.16,0.33,0.24
2024-12-25 17:23:51,790,884,929,867,849,7.96,-2.08,0.81,0.83,0.68,1.39
2024-12-25 17:23:51,789,884,929,866,850,4.85,4.15,2.07,0.84,-0.48,-0.52
2024-12-25 17:23:51,791,885,927,867,850,14.17,5.73,0.60,-1.14,-1.16,-1.04
2024-12-25 17:23:51,791,886,929,866,849,12.28,-0.83,0.64,-1.10,0.41,0.47
2024-12-25 17:23:52,788,883,928,868,850,5.83,-1.32,1.71,0.75,0.86,1.05
2024-12-25 17:23:52,789,883,927,866,849,7.95,5.75,2.69,0.53,-1.06,-0.70
2024-12-25 17:23:52,790,883,928,866,849,13.12,6.12,2.10,-1.48,-0.74,-1.07
2024-12-25 17:23:52,789,885,929,867,849,15.60,-0.17,0.95,-0.54,0.49,0.78
2024-12-25 17:23:52,787,885,927,867,846,5.89,-1.09,1.95,1.26,0.58,1.89
2024-12-25 17:23:53,788,885,926,866,848,7.22,5.38,2.17,0.74,-1.33,-1.01
2024-12-25 17:23:53,788,883,927,867,848,13.03,7.30,2.11,-0.84,-1.18,-1.17
2024-12-25 17:23:53,791,885,928,866,847,13.28,1.32,1.66,-1.01,0.03,0.57
2024-12-25 17:23:53,788,884,926,864,847,7.97,-1.89,1.44,0.86,0.35,1.67
2024-12-25 17:23:53,789,884,927,864,847,6.49,4.32,1.54,1.50,-0.95,-0.58
2024-12-25 17:23:53,789,883,925,865,846,12.76,6.42,0.06,-0.98,-1.01,-0.79
2024-12-25 17:23:54,793,885,928,866,847,12.99,-0.17,-0.35,-0.67,0.76,0.52
2024-12-25 17:23:54,790,884,927,866,848,6.37,-1.23,1.19,0.76,1.17,1.46
2024-12-25 17:23:54,790,884,928,864,845,5.45,4.54,3.24,0.83,-0.43,-1.34
2024-12-25 17:23:54,790,885,928,867,847,12.48,5.48,3.06,-1.24,-0.34,-1.11
2024-12-25 17:23:54,791,884,928,866,845,11.73,-1.39,2.05,-0.14,0.38,0.95
2024-12-25 17:23:55,791,887,929,865,845,4.34,0.11,3.31,0.97,0.39,0.82
2024-12-25 17:23:55,793,883,930,864,846,8.62,5.60,2.75,0.19,-0.26,-1.10
2024-12-25 17:23:55,789,883,928,864,846,14.25,4.67,2.16,-0.69,-1.20,0.25
2024-12-25 17:23:55,790,884,928,864,846,9.43,-2.60,3.48,-0.26,0.81,0.97
2024-12-25 17:23:55,792,886,925,864,846,4.93,-1.26,2.64,0.48,0.23,0.51
2024-12-25 17:23:55,792,884,929,866,845,10.55,5.81,3.20,0.61,-0.42,-0.95
2024-12-25 17:23:56,790,884,927,865,848,14.60,3.13,2.53,-0.97,-0.53,-0.19
2024-12-25 17:23:56,791,884,927,863,845,10.06,-3.31,2.83,-0.16,0.62,1.21
2024-12-25 17:23:56,792,883,924,864,847,4.80,0.66,2.60,0.65,0.46,0.24
2024-12-25 17:23:56,791,882,926,863,846,11.06,5.49,2.17,-0.01,-0.69,-1.37
2024-12-25 17:23:56,791,884,927,865,845,13.28,0.14,2.12,-1.09,0.44,-0.01
2024-12-25 17:23:57,789,884,927,865,844,7.82,-3.81,1.73,0.33,0.78,1.22
2024-12-25 17:23:57,791,884,930,865,848,7.62,3.06,2.56,0.77,-0.24,-0.57
2024-12-25 17:23:57,789,883,927,864,845,11.23,4.83,3.38,-0.41,-0.47,-1.24
2024-12-25 17:23:57,792,884,927,864,845,15.61,0.08,2.53,-0.84,0.38,0.16
2024-12-25 17:23:57,790,885,926,865,847,7.28,-1.84,2.37,0.35,0.67,1.69
2024-12-25 17:23:58,788,886,928,866,847,6.06,3.37,2.11,0.35,-1.46,-0.27
2024-12-25 17:23:58,790,886,930,866,848,15.51,5.53,1.35,-0.81,-0.33,-1.51
2024-12-25 17:23:58,789,886,930,866,846,12.09,-1.43,1.48,-1.13,0.16,0.67
2024-12-25 17:23:58,787,883,928,865,846,6.24,-1.84,2.06,0.97,0.69,1.15
2024-12-25 17:23:58,788,883,929,867,845,6.96,5.13,2.32,0.82,-0.70,-0.98
2024-12-25 17:23:58,790,885,928,865,846,14.60,4.07,1.70,-1.19,-0.65,-0.38
2024-12-25 17:23:59,789,884,926,866,846,11.49,-2.39,1.20,-0.29,0.72,0.70
2024-12-25 17:23:59,789,884,927,865,845,5.03,-1.59,1.71,0.99,0.16,1.04
2024-12-25 17:23:59,790,885,928,867,844,9.92,5.78,2.09,0.45,0.00,-1.37
2024-12-25 17:23:59,790,882,929,864,846,13.81,4.72,2.01,-1.01,-1.09,-0.52
2024-12-25 17:23:59,791,885,928,866,847,12.86,-1.53,1.42,-0.41,0.37,1.04
2024-12-25 17:24:00,789,884,928,864,846,6.57,-0.86,1.91,1.18,0.86,1.61
2024-12-25 17:24:00,790,884,926,865,845,7.39,4.40,2.40,0.49,-1.90,-0.41
2024-12-25 17:24:00,791,881,928,865,846,15.02,4.51,1.01,-1.18,-0.62,-1.08
2024-12-25 17:24:00,791,885,929,865,845,13.03,-0.62,1.07,-1.10,0.35,0.55
2024-12-25 17:24:00,789,883,926,864,844,7.20,-2.22,1.56,0.79,0.89,1.68
2024-12-25 17:24:00,787,883,928,864,845,5.01,2.53,2.50,1.02,-0.98,-0.39
2024-12-25 17:24:01,786,884,925,865,844,12.92,5.68,0.26,-0.79,-0.45,-1.51
2024-12-25 17:24:01,789,884,930,863,845,14.02,0.89,0.00,-1.44,0.35,0.20
2024-12-25 17:24:01,790,887,929,866,847,9.74,-2.05,1.77,0.11,1.62,1.42
2024-12-25 17:24:01,791,886,927,865,845,4.90,-0.68,3.02,0.84,-0.07,1.21
2024-12-25 17:24:01,789,883,929,864,846,7.56,4.48,1.51,0.82,-1.13,-1.69
2024-12-25 17:24:02,789,881,928,863,849,17.59,3.80,0.41,-1.43,-0.50,-0.93
2024-12-25 17:24:02,788,885,926,868,846,13.44,-2.07,0.79,-1.41,0.66,0.82
2024-12-25 17:24:02,785,884,930,865,847,5.01,-3.39,1.36,1.06,0.79,1.35
2024-12-25 17:24:02,788,886,928,865,849,7.60,3.91,1.53,1.79,-1.49,-0.48
2024-12-25 17:24:02,789,884,927,863,846,12.42,5.52,0.93,-0.78,-0.02,-1.87
2024-12-25 17:24:02,789,883,927,863,846,13.90,-0.35,0.26,-1.75,0.37,0.11
2024-12-25 17:24:03,788,884,929,863,847,9.17,-2.68,0.61,0.67,0.86,1.42
2024-12-25 17:24:03,790,886,928,866,846,4.67,1.32,2.54,1.39,0.27,0.04
2024-12-25 17:24:03,789,883,929,864,846,10.79,6.85,2.57,0.11,0.07,-1.82
2024-12-25 17:24:03,790,884,930,865,847,14.02,2.75,1.75,-1.60,-0.94,-0.31
2024-12-25 17:24:03,788,883,928,864,844,11.58,-1.35,0.99,-0.43,0.72,1.19
2024-12-25 17:24:04,788,883,929,864,846,4.05,-0.58,2.26,1.49,0.47,1.00
2024-12-25 17:24:04,788,884,927,865,847,9.05,6.37,2.60,0.84,-0.56,-1.26
2024-12-25 17:24:04,789,884,927,866,845,13.66,4.76,2.16,-1.15,-0.78,-0.63
2024-12-25 17:24:04,789,884,926,864,845,12.09,-0.88,2.26,-0.90,0.40,0.77
2024-12-25 17:24:04,788,884,925,864,843,4.14,-1.96,1.81,1.04,0.59,1.05
2024-12-25 17:24:05,789,885,927,866,846,9.21,6.94,2.05,0.89,-0.40,-1.57
2024-12-25 17:24:05,790,884,927,865,846,12.00,5.08,2.92,-0.84,-0.74,-0.46
2024-12-25 17:24:05,788,885,926,864,844,12.54,-0.47,2.14,-0.61,0.10,0.78
2024-12-25 17:24:05,787,883,926,864,844,8.09,-0.65,1.93,0.78,0.65,1.37
2024-12-25 17:24:05,786,882,926,865,842,6.09,3.38,2.14,0.78,-0.83,0.00
2024-12-25 17:24:05,791,885,926,863,845,11.27,5.71,2.73,-0.40,-0.57,-1.73
2024-12-25 17:24:06,789,882,927,866,845,13.77,0.89,1.31,-1.50,0.09,-0.01
2024-12-25 17:24:06,792,884,926,865,845,8.13,-2.42,1.03,0.58,0.80,1.66
2024-12-25 17:24:06,788,885,926,863,845,6.54,1.35,1.62,1.07,0.49,0.08
2024-12-25 17:24:06,789,882,926,866,843,11.95,5.75,3.37,0.03,-0.47,-1.46
2024-12-25 17:24:06,787,884,925,862,843,14.08,2.89,2.14,-1.44,-0.87,-0.52
2024-12-25 17:24:07,787,884,927,865,845,12.17,-1.10,1.73,-0.34,0.55,1.35
2024-12-25 17:24:07,788,883,929,863,845,3.23,-1.47,2.24,1.02,0.21,1.23
2024-12-25 17:24:07,790,883,928,866,847,9.53,5.66,0.95,0.68,0.24,-1.78
2024-12-25 17:24:07,789,882,928,867,846,13.24,5.09,2.47,-1.20,-0.88,-0.64
2024-12-25 17:24:07,789,884,926,865,844,13.76,-1.84,1.16,-0.91,0.65,0.52
2024-12-25 17:24:07,790,884,926,864,844,6.55,-2.25,1.36,0.75,0.52,1.98
2024-12-25 17:24:08,791,884,927,865,844,7.63,3.57,2.09,1.20,-1.59,-0.20
2024-12-25 17:24:08,790,882,929,864,844,13.21,5.75,2.71,-0.71,-1.05,-1.11
2024-12-25 17:24:08,790,884,927,864,843,14.88,1.19,1.21,-1.59,-0.25,0.11
2024-12-25 17:24:08,790,884,928,865,844,9.26,-2.41,1.15,0.07,1.08,1.67
2024-12-25 17:24:08,788,883,929,865,844,3.90,0.38,2.15,1.20,0.02,0.60
2024-12-25 17:24:09,789,883,926,865,843,11.41,6.96,4.06,0.32,-1.27,-1.60
2024-12-25 17:24:09,788,883,928,865,846,14.15,2.69,2.87,-1.34,-1.07,-0.53
2024-12-25 17:24:09,789,883,928,864,844,12.22,-0.91,2.21,-0.74,0.77,1.38
2024-12-25 17:24:09,787,885,929,863,844,2.72,-1.70,1.55,1.27,0.53,1.25
2024-12-25 17:24:09,789,884,926,864,846,9.99,6.82,2.41,0.85,-2.31,-0.73
2024-12-25 17:24:09,789,884,926,862,845,13.41,4.80,1.44,-1.13,-0.47,-1.43
2024-12-25 17:24:10,789,884,927,862,844,14.68,0.45,0.91,-1.40,0.02,0.53
2024-12-25 17:24:10,790,883,924,862,843,6.28,-2.25,0.09,0.69,0.72,2.25
2024-12-25 17:24:10,788,883,926,865,843,5.34,4.47,1.13,2.00,-0.90,-0.27
2024-12-25 17:24:10,790,884,924,863,845,14.70,6.72,1.81,-0.76,-0.66,-1.68
2024-12-25 17:24:10,789,884,927,865,845,13.04,0.53,1.29,-1.26,0.25,0.16
2024-12-25 17:24:11,791,883,926,864,845,7.84,-2.52,0.34,0.60,0.76,1.78
2024-12-25 17:24:11,789,883,925,863,844,4.15,1.78,1.42,1.75,-0.02,-0.14
2024-12-25 17:24:11,787,884,926,864,844,11.90,6.45,2.18,-0.16,-0.44,-1.57
2024-12-25 17:24:11,790,882,926,864,845,13.23,-0.28,1.20,-1.11,0.23,0.26
2024-12-25 17:24:11,790,883,925,862,844,7.75,-2.75,0.15,0.75,0.56,1.25
2024-12-25 17:24:12,789,884,927,864,844,8.02,4.01,2.88,1.36,-0.20,-0.69
2024-12-25 17:24:12,788,884,928,863,843,13.10,5.37,2.24,-0.88,-0.97,-0.71
2024-12-25 17:24:12,790,883,925,863,844,12.82,-0.51,1.37,-0.91,0.03,0.72
2024-12-25 17:24:12,789,882,927,864,844,8.23,-1.84,1.45,0.70,0.84,1.30
2024-12-25 17:24:12,789,885,926,863,844,6.04,4.14,2.30,0.90,-0.98,-0.65
2024-12-25 17:24:12,789,883,928,863,844,13.18,7.29,2.46,-0.90,-0.29,-1.91
2024-12-25 17:24:13,787,883,924,864,843,13.33,1.17,1.23,-1.59,-0.21,0.23
2024-12-25 17:24:13,789,885,925,864,845,9.60,-2.48,0.68,0.28,0.21,2.24
2024-12-25 17:24:13,788,884,928,864,846,3.46,3.61,1.62,1.94,-0.17,-0.59
2024-12-25 17:24:13,791,884,927,864,845,15.17,7.29,0.26,-0.28,-1.65,-0.91
2024-12-25 17:24:13,790,885,926,863,844,13.80,-0.51,0.77,-1.48,0.50,0.64
2024-12-25 17:24:14,787,885,926,865,846,7.05,-3.11,0.73,0.58,1.07,1.52
2024-12-25 17:24:14,786,885,927,864,845,4.53,3.42,1.94,2.11,-0.23,-1.40
2024-12-25 17:24:14,787,885,925,863,842,12.79,7.58,2.88,-0.71,-0.50,-0.84
2024-12-25 17:24:14,788,885,925,863,843,13.39,0.12,2.04,-1.46,-0.05,0.78
2024-12-25 17:24:14,784,881,922,861,841,7.37,-3.06,0.95,0.23,0.39,2.02
2024-12-25 17:24:14,785,882,925,863,843,5.28,3.00,1.06,0.82,-1.50,-0.69
2024-12-25 17:24:15,783,883,926,866,847,15.05,5.23,0.92,-1.09,-0.50,-1.13
2024-12-25 17:24:15,788,885,927,868,849,14.40,-2.05,-0.32,-1.50,0.36,0.50
2024-12-25 17:24:15,784,883,925,866,850,5.63,-3.04,1.07,1.01,0.57,1.73
2024-12-25 17:24:15,783,884,925,867,848,6.60,4.17,1.26,1.61,-1.50,-0.75
2024-12-25 17:24:15,784,889,927,865,849,14.03,5.64,0.45,-1.24,-0.40,-1.32
2024-12-25 17:24:16,785,887,927,867,847,13.50,-1.49,0.00,-1.64,0.33,0.88
2024-12-25 17:24:16,785,884,928,865,848,7.55,-3.73,0.07,0.74,0.46,1.73
2024-12-25 17:24:16,784,883,925,864,847,4.85,2.74,1.58,1.21,-0.95,-0.75
2024-12-25 17:24:16,788,884,926,863,848,13.00,5.89,1.23,-0.38,-0.94,-1.47
2024-12-25 17:24:16,788,884,928,866,847,14.54,-0.31,0.55,-1.26,0.26,0.38
2024-12-25 17:24:16,787,884,926,865,847,7.01,-3.25,1.09,0.42,0.81,1.78
2024-12-25 17:24:17,786,886,926,864,847,4.94,0.92,1.71,0.87,-1.07,0.04
2024-12-25 17:24:17,786,884,927,865,848,10.75,6.16,-0.02,-0.38,-0.11,-2.09
2024-12-25 17:24:17,788,883,926,865,846,15.67,1.58,-0.17,-1.26,-0.56,-0.48
2024-12-25 17:24:17,785,883,926,864,846,11.65,-1.54,0.98,0.16,1.30,1.46
2024-12-25 17:24:17,786,883,925,864,846,3.56,-1.58,1.59,0.69,0.96,0.48
2024-12-25 17:24:18,786,884,925,865,847,8.56,7.92,1.05,0.88,-1.37,-1.39
2024-12-25 17:24:18,788,884,927,864,845,14.49,4.17,-2.75,-1.24,-0.64,-0.48
2024-12-25 17:24:18,786,886,927,865,846,12.92,-1.41,-1.38,-1.08,1.61,0.93
2024-12-25 17:24:18,786,884,927,865,844,6.50,-1.92,2.07,0.69,1.03,1.93
2024-12-25 17:24:18,785,884,926,865,844,5.91,3.68,2.15,0.81,-1.29,-0.35
2024-12-25 17:24:19,788,883,925,865,844,13.32,4.86,1.75,-1.09,-0.77,-1.31
2024-12-25 17:24:19,789,885,927,863,845,15.28,-1.61,0.84,-1.23,0.48,0.35
2024-12-25 17:24:19,786,883,927,862,844,7.02,-3.01,0.88,0.66,0.66,2.12
2024-12-25 17:24:19,786,882,925,863,845,4.09,0.85,1.89,1.07,-0.70,-0.06
2024-12-25 17:24:19,788,884,926,864,846,11.64,5.11,1.35,0.03,-0.84,-1.95
2024-12-25 17:24:19,789,883,926,864,845,15.32,0.40,0.59,-1.65,-0.25,0.18
2024-12-25 17:24:20,787,884,925,863,845,9.10,-3.77,0.62,0.20,1.01,1.47
2024-12-25 17:24:20,786,884,928,866,844,3.57,0.00,1.90,1.37,-0.14,0.45
2024-12-25 17:24:20,788,883,925,863,845,13.40,5.38,2.95,0.37,-0.13,-1.44
2024-12-25 17:24:20,788,883,926,863,846,10.82,2.21,1.91,-0.97,-0.29,-0.76
2024-12-25 17:24:20,790,881,928,864,845,12.37,0.01,0.74,-0.75,0.44,0.44
2024-12-25 17:24:21,787,885,926,863,845,9.86,-1.30,1.43,0.37,0.84,1.38
2024-12-25 17:24:21,787,882,927,864,844,6.00,-0.66,2.96,0.79,-0.04,0.45
2024-12-25 17:24:21,788,883,925,863,844,8.78,1.60,2.47,0.65,-0.21,-0.65
2024-12-25 17:24:21,788,883,925,862,844,11.95,2.83,2.83,-0.03,-0.13,-0.91
2024-12-25 17:24:21,787,885,925,864,844,11.73,1.47,1.56,-0.73,-0.34,-0.25
2024-12-25 17:24:21,787,883,925,863,845,11.41,0.53,1.30,-0.65,0.26,0.43
2024-12-25 17:24:22,788,883,925,863,843,9.39,-1.44,1.78,0.04,0.66,0.94
2024-12-25 17:24:22,786,884,926,862,844,7.53,-0.72,2.77,0.90,0.06,0.58
2024-12-25 17:24:22,785,883,925,863,844,7.96,1.60,2.53,0.76,-1.24,-0.37
2024-12-25 17:24:22,786,882,924,863,842,11.16,4.18,1.99,-0.50,-0.04,-1.40
2024-12-25 17:24:22,789,883,925,865,844,13.00,3.10,1.41,-1.31,-0.41,-0.08
2024-12-25 17:24:23,788,884,927,862,842,11.83,-0.53,1.12,-0.71,0.54,0.75
2024-12-25 17:24:23,785,882,925,863,842,7.84,-1.48,1.94,0.76,0.90,0.97
2024-12-25 17:24:23,787,882,927,863,843,5.93,2.50,2.38,1.01,-1.04,-0.22
2024-12-25 17:24:23,788,884,925,862,843,12.53,4.80,1.71,-0.51,-0.83,-1.09
2024-12-25 17:24:23,786,883,925,860,841,13.47,3.21,1.92,-1.55,-1.01,-0.04
2024-12-25 17:24:24,785,884,925,862,843,10.13,-1.73,0.37,0.13,0.43,1.22
2024-12-25 17:24:24,786,881,925,862,843,6.02,-0.61,2.43,1.37,0.60,0.82
2024-12-25 17:24:24,786,880,926,861,843,7.57,1.83,1.71,0.30,-1.60,-0.19
2024-12-25 17:24:24,785,882,926,862,842,11.21,3.61,1.26,-0.53,-0.00,-1.22
2024-12-25 17:24:24,784,880,924,861,843,11.56,1.92,0.89,-1.20,-0.30,-0.08
2024-12-25 17:24:24,784,881,924,861,841,11.19,0.07,0.97,-0.63,0.65,0.50
2024-12-25 17:24:25,784,882,925,861,842,9.21,-1.27,1.77,0.32,0.67,0.96
2024-12-25 17:24:25,785,884,926,862,841,8.88,-0.43,2.69,1.05,0.18,0.27
2024-12-25 17:24:25,789,881,926,863,842,8.59,1.38,3.44,0.23,-0.44,-0.20
2024-12-25 17:24:25,788,880,925,864,844,10.19,2.78,2.46,-0.24,-0.69,-0.88
2024-12-25 17:24:25,788,881,925,863,843,11.82,2.92,2.04,-0.87,-0.34,-0.46
2024-12-25 17:24:26,787,880,925,862,843,11.79,0.64,1.52,-0.77,0.15,0.33
2024-12-25 17:24:26,788,881,924,863,842,10.00,-0.97,1.71,0.10,0.65,0.67
2024-12-25 17:24:26,788,880,925,862,841,7.21,-0.73,2.37,1.01,-0.08,0.55
2024-12-25 17:24:26,785,881,924,861,842,6.92,2.48,2.78,0.65,-0.30,-0.61
2024-12-25 17:24:26,786,881,926,863,845,12.18,4.40,1.75,-0.62,-0.22,-0.92
2024-12-25 17:24:26,788,882,924,864,844,11.57,2.18,1.52,-1.01,-0.22,-0.02
2024-12-25 17:24:27,785,881,923,863,844,12.61,0.06,0.68,-0.56,0.45,0.50
2024-12-25 17:24:27,786,882,923,863,841,9.45,-0.70,2.07,0.25,1.19,0.46
2024-12-25 17:24:27,787,884,923,862,842,7.15,0.47,3.32,0.72,0.17,0.64
2024-12-25 17:24:27,786,881,926,862,843,8.20,3.20,2.98,0.72,-1.26,0.02
2024-12-25 17:24:27,790,882,925,862,846,13.00,2.74,1.43,-0.57,-0.93,-0.87
2024-12-25 17:24:28,786,882,926,862,843,12.20,1.42,0.68,-0.76,-0.17,-0.08
2024-12-25 17:24:28,787,882,924,861,844,11.92,-0.31,1.11,-0.28,0.60,0.54
2024-12-25 17:24:28,788,882,926,862,841,8.29,-1.10,2.54,0.26,0.78,0.78
2024-12-25 17:24:28,786,884,923,861,842,6.22,0.95,2.84,0.68,-0.15,0.32
2024-12-25 17:24:28,786,880,925,861,842,10.90,3.10,2.86,0.01,-1.12,-0.73
2024-12-25 17:24:28,787,881,925,862,843,12.76,2.25,1.66,-1.14,-0.49,-0.25
2024-12-25 17:24:29,787,878,923,864,843,11.50,-0.08,1.04,-0.71,0.33,0.14
2024-12-25 17:24:29,786,881,924,863,842,10.54,-1.36,1.33,0.02,0.83,0.77
2024-12-25 17:24:29,786,882,925,862,841,5.94,-1.65,2.38,1.23,0.10,0.92
2024-12-25 17:24:29,784,881,926,863,844,9.14,2.28,2.50,0.69,-1.03,-0.50
2024-12-25 17:24:29,787,881,925,864,843,12.63,4.05,2.43,-0.16,-0.83,-1.01
2024-12-25 17:24:30,788,881,923,861,842,12.22,1.95,1.51,-1.26,-0.62,0.09
2024-12-25 17:24:30,788,880,924,863,844,12.15,0.32,1.29,-0.53,0.53,0.81
2024-12-25 17:24:30,788,883,927,864,843,8.61,-1.30,2.43,0.06,0.79,0.98
2024-12-25 17:24:30,786,882,925,861,841,6.52,-0.84,2.85,0.67,-0.23,0.50
2024-12-25 17:24:30,789,882,926,863,844,9.22,2.57,2.26,0.60,-1.01,-0.84
2024-12-25 17:24:31,787,882,922,862,844,11.85,3.20,1.44,-0.73,-0.19,-0.95
2024-12-25 17:24:31,787,881,927,863,844,12.79,1.03,1.55,-1.02,0.08,0.00
2024-12-25 17:24:31,786,882,925,862,844,10.38,-1.37,1.45,-0.21,0.68,1.02
2024-12-25 17:24:31,788,884,925,862,843,5.37,-1.34,2.47,0.85,0.21,0.85
2024-12-25 17:24:31,788,881,924,863,844,7.69,2.69,2.45,0.91,-0.95,-0.56
2024-12-25 17:24:31,786,880,924,862,844,12.24,4.19,2.25,-0.48,-0.17,-1.34
2024-12-25 17:24:32,785,881,925,861,841,12.84,1.69,1.28,-1.06,-0.27,-0.15
2024-12-25 17:24:32,789,882,924,863,844,11.02,-0.72,1.32,-0.32,0.61,0.92
2024-12-25 17:24:32,785,881,925,862,842,6.93,-1.16,2.50,0.81,0.68,1.15
2024-12-25 17:24:32,787,882,923,864,844,7.24,2.36,2.88,0.51,-1.14,-0.27
2024-12-25 17:24:32,785,881,923,862,843,12.79,4.93,2.25,-0.40,-0.79,-1.26
2024-12-25 17:24:33,787,880,923,863,843,13.89,1.48,1.44,-1.21,-0.06,-0.10
2024-12-25 17:24:33,785,880,924,862,843,10.15,-1.51,1.35,-0.13,0.79,1.08
2024-12-25 17:24:33,787,881,923,863,845,5.66,-1.12,3.00,0.87,0.30,1.12
2024-12-25 17:24:33,787,880,926,863,843,8.40,3.18,2.78,0.46,-1.01,-0.51
2024-12-25 17:24:33,789,880,925,863,843,13.34,4.89,3.13,-0.35,-0.25,-1.47
2024-12-25 17:24:33,787,881,925,862,841,13.17,1.50,2.76,-1.33,-0.25,0.10
2024-12-25 17:24:34,786,882,925,864,841,10.07,-1.32,1.66,-0.10,0.56,1.41
2024-12-25 17:24:34,785,880,923,861,842,4.61,-0.81,3.05,1.03,0.12,0.86
2024-12-25 17:24:34,787,879,923,862,841,8.62,3.69,3.72,0.98,-0.45,-1.17
2024-12-25 17:24:34,788,882,926,862,841,10.46,5.13,5.01,-0.46,-1.06,-0.87
2024-12-25 17:24:34,786,878,923,861,840,13.54,2.20,3.37,-1.28,-0.30,-0.03
2024-12-25 17:24:35,786,882,924,861,842,9.01,-1.29,2.55,-0.33,0.37,1.47
2024-12-25 17:24:35,787,882,926,862,842,4.86,-0.47,2.97,0.37,0.25,0.34
2024-12-25 17:24:35,787,881,925,861,841,10.56,4.91,2.91,0.22,0.03,-1.46
2024-12-25 17:24:35,788,881,928,861,844,12.21,3.44,2.66,-1.13,-0.55,-0.62
2024-12-25 17:24:35,786,882,924,861,841,12.39,-0.62,2.52,-1.08,0.31,0.56
2024-12-25 17:24:36,787,883,926,862,842,6.97,-1.62,2.61,0.61,0.65,1.23
2024-12-25 17:24:36,786,883,924,863,844,8.18,1.16,1.78,0.55,-1.81,0.32
2024-12-25 17:24:36,786,882,926,863,844,11.32,3.80,3.01,0.40,0.03,-1.47
2024-12-25 17:24:36,788,882,927,864,843,13.61,2.18,1.36,-1.07,-0.30,-0.04
2024-12-25 17:24:36,785,881,923,863,842,10.98,-0.95,1.69,-0.32,0.92,0.87
2024-12-25 17:24:36,785,883,925,861,843,6.47,-1.56,1.68,1.09,0.26,0.73
2024-12-25 17:24:37,788,882,926,863,841,9.20,3.14,2.66,1.16,-0.61,-0.21
2024-12-25 17:24:37,787,882,926,863,842,11.06,4.97,3.55,-0.26,0.13,-1.28
2024-12-25 17:24:37,787,880,923,861,840,13.80,2.48,2.47,-1.64,-0.19,-0.18
2024-12-25 17:24:37,786,880,923,861,842,10.27,-0.18,2.72,-0.52,0.87,0.77
2024-12-25 17:24:37,787,881,925,863,841,6.12,-1.54,3.15,0.48,0.30,1.32
2024-12-25 17:24:38,786,882,926,862,841,9.10,3.12,3.37,1.08,0.41,-1.00
2024-12-25 17:24:38,787,882,925,862,840,10.34,5.79,4.71,-0.60,-1.06,-1.23
2024-12-25 17:24:38,786,881,926,862,841,13.01,2.76,3.48,-1.13,-0.64,-0.17
2024-12-25 17:24:38,787,880,925,862,842,11.40,-0.22,2.71,-0.47,0.14,1.36
2024-12-25 17:24:38,788,881,924,862,842,5.90,-0.93,2.99,0.84,0.31,1.59
2024-12-25 17:24:38,786,880,925,862,841,8.10,1.58,2.95,0.71,-0.95,-0.33
2024-12-25 17:24:39,787,879,925,861,842,12.12,4.14,3.21,-0.39,-0.63,-1.21
2024-12-25 17:24:39,787,880,924,861,841,13.05,1.30,1.74,-1.25,-0.32,-0.09
2024-12-25 17:24:39,788,881,923,863,842,10.90,-1.62,1.33,-0.48,0.69,1.18
2024-12-25 17:24:39,787,881,926,861,840,5.28,-2.16,2.39,0.88,0.09,1.12
2024-12-25 17:24:39,786,880,925,862,843,9.71,3.00,2.15,0.65,-1.36,-1.03
2024-12-25 17:24:40,786,881,924,861,841,12.53,3.14,1.85,-1.00,-0.71,-1.12
2024-12-25 17:24:40,788,881,925,864,842,11.89,1.06,1.16,-0.67,0.37,0.09
2024-12-25 17:24:40,786,881,924,863,841,10.07,-1.13,1.45,0.23,0.83,0.95
2024-12-25 17:24:40,786,880,926,863,842,5.74,-0.97,2.89,0.88,-0.11,0.79
2024-12-25 17:24:40,787,880,926,863,842,9.45,3.89,3.21,0.74,0.27,-1.26
2024-12-25 17:24:40,787,881,925,861,843,12.41,3.64,2.80,-0.89,-0.35,-0.53
2024-12-25 17:24:41,785,880,922,863,843,12.39,-0.60,2.24,-0.67,0.40,0.36
2024-12-25 17:24:41,789,880,925,860,841,7.87,-2.38,3.06,0.31,0.41,1.06
2024-12-25 17:24:41,787,881,926,861,840,6.64,0.70,2.92,0.53,-0.03,0.02
2024-12-25 17:24:41,786,880,926,863,841,10.09,4.87,3.84,0.34,-0.01,-1.12
2024-12-25 17:24:41,787,881,922,860,841,14.40,2.98,3.25,-1.27,-0.68,-0.20
2024-12-25 17:24:42,786,881,922,861,840,10.62,-2.58,1.68,-0.07,0.82,1.15
2024-12-25 17:24:42,788,881,924,861,840,5.04,-0.74,3.05,0.77,0.16,0.69
2024-12-25 17:24:42,786,883,924,862,841,9.92,5.90,3.70,0.63,-0.26,-1.48
2024-12-25 17:24:42,787,882,926,861,840,12.92,3.36,3.52,-0.98,-0.68,-0.74
2024-12-25 17:24:42,787,881,923,861,840,12.93,-0.60,2.60,-1.16,0.70,0.76
2024-12-25 17:24:43,787,880,924,862,840,7.26,-2.09,2.13,0.89,0.69,1.48
2024-12-25 17:24:43,786,881,924,861,840,5.03,1.17,3.42,1.14,-0.58,0.02
2024-12-25 17:24:43,787,881,925,862,841,11.23,4.52,3.99,0.05,-0.62,-1.42
2024-12-25 17:24:43,788,880,924,860,841,12.36,2.28,3.68,-1.37,-0.47,-0.40
2024-12-25 17:24:43,787,880,924,861,839,11.04,-2.45,2.06,-0.28,0.31,1.12
2024-12-25 17:24:43,786,881,924,862,841,5.37,-2.01,3.22,0.74,-0.07,1.04
2024-12-25 17:24:44,789,880,925,864,844,8.44,2.48,3.07,0.92,0.63,-1.36
2024-12-25 17:24:44,788,879,926,864,842,12.50,3.78,3.70,-0.64,-0.00,-1.23
2024-12-25 17:24:44,789,880,924,862,842,15.07,0.36,2.25,-1.27,0.35,-0.14
2024-12-25 17:24:44,789,881,923,861,842,7.92,-1.93,2.36,0.44,0.32,1.49
2024-12-25 17:24:44,788,880,923,861,840,5.61,0.84,2.78,1.26,-0.67,0.46
