Timestamp,Flex1,Flex2,Flex3,Flex4,Flex5,AccelX,AccelY,AccelZ,GyroX,GyroY,GyroZ
2024-12-25 18:39:20,790,783,795,772,775,-4.40,1.13,9.21,-0.03,0.04,-0.00
2024-12-25 18:39:20,790,781,794,771,776,-4.43,1.23,9.20,-0.02,0.03,0.01
2024-12-25 18:39:20,789,783,794,770,774,-4.41,1.22,9.28,-0.05,-0.01,-0.03
2024-12-25 18:39:20,790,783,795,771,777,-4.41,1.33,9.33,-0.03,0.03,-0.01
2024-12-25 18:39:20,788,783,796,773,776,-4.41,1.27,9.29,-0.03,0.05,0.01
2024-12-25 18:39:20,789,784,794,771,775,-4.53,1.41,9.25,-0.07,-0.00,-0.03
2024-12-25 18:39:20,790,785,797,771,775,-4.20,1.25,9.28,-0.03,0.02,-0.01
2024-12-25 18:39:20,791,785,795,772,776,-4.52,1.26,9.26,-0.04,0.03,-0.00
2024-12-25 18:39:20,790,788,795,770,775,-4.30,1.30,9.49,-0.32,-0.06,0.04
2024-12-25 18:39:20,791,790,803,772,776,-4.34,0.57,9.28,-0.05,-0.02,-0.09
2024-12-25 18:39:20,792,784,789,767,777,-4.33,0.85,9.33,0.19,-0.13,0.02
2024-12-25 18:39:20,788,779,784,764,777,-4.45,1.33,9.22,0.27,-0.05,-0.01
2024-12-25 18:39:20,781,774,781,762,777,-4.20,1.62,9.51,-0.01,0.03,-0.03
2024-12-25 18:39:20,776,781,786,763,776,-4.20,0.47,9.51,-1.29,0.02,-0.46
2024-12-25 18:39:20,784,784,788,765,776,-3.79,-0.79,8.29,0.64,0.01,0.19
2024-12-25 18:39:20,779,776,782,761,780,-4.31,0.49,9.61,0.11,0.03,0.02
2024-12-25 18:39:20,780,777,783,761,775,-4.23,0.89,9.78,-0.15,0.22,0.10
2024-12-25 18:39:20,792,787,797,771,773,-4.30,0.08,8.62,-0.62,-0.00,-0.02
2024-12-25 18:39:20,783,784,791,770,772,-4.23,0.58,9.78,1.95,0.35,-0.04
2024-12-25 18:39:20,771,774,783,760,772,-4.30,1.40,9.33,0.14,-0.13,-0.05
2024-12-25 18:39:20,770,776,782,760,769,-4.53,1.54,9.92,-0.79,0.20,-0.37
2024-12-25 18:39:20,779,790,805,771,773,-4.19,-0.73,8.90,-0.68,-0.06,0.04
2024-12-25 18:39:20,779,786,794,767,773,-4.28,-0.15,8.31,2.38,0.43,-0.17
2024-12-25 18:39:20,769,777,785,763,774,-4.72,0.67,9.44,-0.01,-0.05,-0.03
2024-12-25 18:39:20,776,796,806,772,774,-4.07,-0.67,8.69,-1.43,-0.14,0.21
2024-12-25 18:39:20,784,802,827,786,779,-4.58,-2.15,8.34,-0.17,-0.32,-0.12
2024-12-25 18:39:20,774,780,786,765,774,-4.30,0.03,9.53,-0.01,0.29,0.04
2024-12-25 18:39:20,770,779,786,764,773,-4.32,0.43,9.53,-0.37,0.14,0.04
2024-12-25 18:39:20,778,794,800,769,773,-4.26,-0.84,9.43,-0.88,-0.07,-0.01
2024-12-25 18:39:20,772,778,786,763,774,-4.14,2.29,11.58,0.85,-0.37,0.23
2024-12-25 18:39:20,775,796,799,769,774,-4.19,-0.02,9.48,-0.57,-0.12,-0.08
2024-12-25 18:39:20,773,776,785,762,774,-4.60,2.45,10.08,1.28,-0.32,0.38
2024-12-25 18:39:20,773,781,787,764,773,-4.34,1.46,10.49,-1.15,0.18,-0.39
2024-12-25 18:39:20,787,806,827,788,777,-4.44,-0.17,9.97,-0.32,-0.25,-0.10
2024-12-25 18:39:20,783,781,787,761,773,-5.87,3.03,10.31,1.81,-0.03,0.55
2024-12-25 18:39:20,780,776,786,761,771,-3.72,2.70,9.64,0.12,0.01,-0.06
2024-12-25 18:39:20,783,787,791,761,769,-4.59,2.37,10.69,-2.21,-0.10,-0.59
2024-12-25 18:39:20,788,806,833,786,781,-3.91,-2.81,8.55,-0.35,-0.27,0.03
2024-12-25 18:39:20,784,787,791,763,776,-3.60,-0.45,10.59,0.74,-0.01,0.06
2024-12-25 18:39:20,778,776,784,762,777,-3.89,0.39,9.60,1.15,0.11,0.34
2024-12-25 18:39:20,780,772,784,761,777,-3.93,1.01,9.65,0.25,-0.04,-0.02
2024-12-25 18:39:20,778,773,782,761,778,-3.89,1.59,9.84,0.12,-0.04,-0.02
2024-12-25 18:39:20,781,778,786,760,775,-4.21,1.24,10.09,-1.01,0.22,-0.32
2024-12-25 18:39:20,788,792,811,776,774,-4.29,-1.35,8.78,-0.58,0.08,0.06
2024-12-25 18:39:20,780,781,792,765,776,-4.73,0.54,9.71,1.89,-0.08,0.17
2024-12-25 18:39:20,784,782,799,769,773,-4.19,0.26,8.94,-1.28,0.04,0.31
2024-12-25 18:39:20,787,791,816,781,775,-4.36,-1.73,7.80,0.20,-0.58,0.10
2024-12-25 18:39:20,780,770,787,770,776,-3.94,1.42,9.79,0.08,0.03,0.06
2024-12-25 18:39:20,781,778,791,769,772,-3.77,0.99,10.68,-2.11,-0.21,-0.03
2024-12-25 18:39:20,789,798,837,794,782,-3.89,-2.52,8.85,-0.61,-0.31,0.02
2024-12-25 18:39:20,776,777,792,765,775,-4.01,0.51,11.29,1.33,-0.27,0.04
2024-12-25 18:39:20,776,789,800,768,774,-3.82,-0.89,9.86,-1.31,-0.01,-0.16
2024-12-25 18:39:20,785,803,842,794,787,-3.84,-2.83,9.17,-0.49,-0.13,0.02
2024-12-25 18:39:20,776,790,795,775,777,-4.27,0.38,11.87,1.17,-0.45,0.07
2024-12-25 18:39:20,779,791,800,777,775,-3.80,-1.10,10.21,-0.87,0.09,-0.23
2024-12-25 18:39:20,783,804,839,803,790,-3.65,-2.37,9.41,-0.50,-0.04,0.12
2024-12-25 18:39:20,780,795,807,782,774,-3.48,-0.79,9.83,2.25,0.52,-0.08
2024-12-25 18:39:20,780,783,787,770,773,-3.80,0.00,9.31,-0.02,0.21,-0.03
2024-12-25 18:39:20,784,785,788,768,772,-4.37,-0.32,9.42,-0.23,-0.04,-0.34
2024-12-25 18:39:20,783,784,791,774,771,-4.22,-0.34,9.62,-0.03,0.04,-0.05
2024-12-25 18:39:20,786,787,798,773,773,-4.37,-0.41,9.36,-0.07,0.03,-0.01
2024-12-25 18:39:20,784,786,796,775,772,-4.29,-0.46,9.55,-0.04,0.01,-0.04
2024-12-25 18:39:20,784,786,798,775,771,-4.28,-0.51,9.51,-0.17,0.00,-0.03
2024-12-25 18:39:20,786,786,799,776,772,-4.10,-0.69,9.07,0.09,-0.09,0.07
2024-12-25 18:39:20,778,777,784,768,772,-4.38,0.41,9.69,0.30,0.02,0.07
2024-12-25 18:39:20,781,785,793,772,771,-4.50,-0.49,9.56,-1.66,0.07,-0.51
2024-12-25 18:39:20,786,786,791,771,773,-4.71,-1.77,8.40,1.39,0.22,-0.13
2024-12-25 18:39:20,786,783,795,773,773,-4.38,-1.43,9.42,-0.78,-0.26,0.03
2024-12-25 18:39:20,788,793,820,787,779,-3.79,-2.45,8.77,-0.07,-0.25,0.22
2024-12-25 18:39:20,781,776,787,765,775,-3.86,0.59,10.99,0.66,0.00,0.19
2024-12-25 18:39:20,779,771,783,763,777,-4.10,1.07,9.98,0.06,-0.09,0.13
2024-12-25 18:39:20,787,793,807,768,773,-4.12,-1.41,8.72,-1.94,0.21,-0.27
2024-12-25 18:39:20,791,801,837,792,782,-4.09,-2.72,9.02,-0.48,-0.19,0.10
2024-12-25 18:39:20,788,799,823,793,778,-3.52,-3.05,7.42,2.26,0.27,0.25
2024-12-25 18:39:20,770,775,785,764,771,-4.01,0.43,9.00,0.22,0.26,0.25
2024-12-25 18:39:20,768,772,782,762,770,-4.55,1.07,9.43,-0.04,0.04,-0.10
2024-12-25 18:39:20,783,801,826,783,780,-4.74,-2.60,8.41,-2.27,0.04,-0.04
2024-12-25 18:39:20,782,805,843,800,791,-3.88,-3.82,8.33,-0.01,-0.17,0.14
2024-12-25 18:39:20,771,786,791,768,774,-4.29,-1.44,9.59,0.48,0.44,0.11
2024-12-25 18:39:20,777,789,800,770,774,-4.39,-1.45,9.78,-1.32,0.13,-0.14
2024-12-25 18:39:20,790,802,843,802,793,-4.13,-3.33,8.76,-0.56,-0.29,0.09
2024-12-25 18:39:20,781,796,813,784,785,-4.19,-2.00,9.65,2.66,0.80,-0.35
2024-12-25 18:39:20,775,786,796,773,778,-4.46,-0.67,9.26,-0.04,-0.01,0.02
2024-12-25 18:39:20,776,793,808,775,778,-4.38,-1.16,9.18,-0.38,-0.10,-0.12
2024-12-25 18:39:20,777,797,813,779,779,-4.13,-1.58,9.71,-0.04,-0.04,-0.12
2024-12-25 18:39:20,774,787,794,774,778,-4.39,0.01,9.93,0.94,0.11,0.13
2024-12-25 18:39:20,773,775,787,765,777,-4.38,1.36,9.55,0.46,-0.07,0.09
2024-12-25 18:39:20,770,775,783,763,776,-4.46,1.76,9.61,-0.49,0.01,-0.08
2024-12-25 18:39:20,786,800,816,774,777,-4.74,-1.02,8.39,-1.46,0.04,0.19
2024-12-25 18:39:20,790,803,825,789,780,-4.22,-1.70,8.80,-0.13,-0.24,0.22
2024-12-25 18:39:20,778,786,791,775,776,-4.78,1.06,10.32,1.11,0.21,-0.06
2024-12-25 18:39:20,776,798,803,776,774,-4.79,-0.08,9.22,-1.79,-0.45,0.50
2024-12-25 18:39:20,781,804,821,787,775,-3.73,-1.40,9.07,-0.25,-0.27,-0.27
2024-12-25 18:39:20,776,783,792,766,772,-4.17,1.14,9.04,0.49,0.37,0.22
2024-12-25 18:39:20,776,797,804,774,772,-4.66,0.27,9.85,-2.11,-0.02,-0.19
2024-12-25 18:39:20,787,802,821,779,774,-4.85,-1.90,8.24,0.13,-0.11,0.02
2024-12-25 18:39:20,778,778,789,766,771,-4.93,0.99,9.54,1.22,0.13,0.07
2024-12-25 18:39:20,776,780,789,764,769,-5.41,1.27,10.05,-1.74,-0.09,-0.28
2024-12-25 18:39:20,789,802,834,794,785,-4.98,-2.10,8.08,-1.14,-0.27,-0.10
2024-12-25 18:39:20,777,781,797,772,775,-4.87,0.35,9.72,2.47,0.47,-0.29
2024-12-25 18:39:20,771,773,786,762,773,-5.05,0.70,9.04,-0.27,0.03,-0.07
2024-12-25 18:39:20,783,800,825,785,784,-5.22,-1.64,8.75,-2.09,0.05,-0.14
2024-12-25 18:39:20,785,804,827,793,785,-4.38,-3.27,7.13,2.53,-0.10,0.08
2024-12-25 18:39:20,769,769,784,763,771,-5.16,0.93,9.47,0.09,0.02,-0.04
2024-12-25 18:39:20,769,777,786,761,770,-5.01,0.50,9.73,-0.99,0.19,-0.19
2024-12-25 18:39:20,781,798,813,775,776,-5.46,-2.08,7.75,-0.97,-0.22,-0.21
2024-12-25 18:39:20,771,780,786,763,771,-5.08,2.10,12.50,0.08,-0.49,0.11
2024-12-25 18:39:20,781,784,792,768,772,-5.09,-0.42,7.50,-1.31,-0.66,-0.17
2024-12-25 18:39:20,791,791,806,772,779,-4.72,-3.44,7.75,-1.17,-0.05,-0.19
2024-12-25 18:39:20,791,789,802,771,777,-3.66,-3.43,10.29,1.06,-0.08,0.04
2024-12-25 18:39:20,793,793,810,775,778,-4.52,-2.99,8.45,-0.39,0.01,0.07
2024-12-25 18:39:20,791,800,824,785,783,-4.31,-3.85,8.28,-0.13,0.08,0.13
2024-12-25 18:39:20,789,790,801,773,777,-5.04,-0.49,9.59,1.94,-0.16,0.46
2024-12-25 18:39:20,791,799,823,785,780,-4.73,-1.08,8.83,-2.12,-0.19,-0.26
2024-12-25 18:39:20,788,799,824,787,779,-4.50,-2.04,6.93,4.95,0.53,0.34
2024-12-25 18:39:20,780,779,790,766,773,-4.65,0.83,9.54,-1.55,0.12,-0.30
2024-12-25 18:39:20,787,809,845,794,787,-4.67,-2.42,8.92,-1.53,-0.13,-0.26
2024-12-25 18:39:20,781,786,807,771,775,-4.86,-0.74,9.14,3.37,0.64,0.05
2024-12-25 18:39:20,776,777,791,763,774,-4.86,-0.16,8.83,-0.79,-0.03,-0.20
2024-12-25 18:39:20,784,810,850,798,784,-4.89,-2.71,8.44,-0.80,0.24,-0.03
2024-12-25 18:39:20,781,803,836,789,781,-4.95,-1.43,8.00,2.91,0.53,-0.12
2024-12-25 18:39:20,778,782,793,764,770,-4.70,0.01,9.53,-1.24,-0.01,-0.14
2024-12-25 18:39:20,781,839,860,796,783,-4.59,-2.37,8.70,-0.90,0.05,-0.11
2024-12-25 18:39:20,784,835,855,798,784,-4.74,-2.42,8.07,1.79,0.27,-0.01
2024-12-25 18:39:20,781,776,798,770,773,-4.88,-0.90,9.09,-0.24,0.05,0.08
2024-12-25 18:39:20,782,781,800,773,774,-4.81,-1.22,9.30,-0.44,0.11,0.02
2024-12-25 18:39:20,783,834,835,785,778,-5.21,-1.56,8.97,-0.36,0.04,0.01
2024-12-25 18:39:20,783,814,820,781,776,-4.60,-1.83,8.25,1.63,0.11,-0.03
2024-12-25 18:39:20,780,779,794,768,772,-5.15,0.07,9.39,-0.61,-0.02,-0.06
2024-12-25 18:39:20,781,812,846,789,786,-4.54,-1.79,8.89,-0.92,-0.10,-0.07
2024-12-25 18:39:20,781,803,830,780,775,-4.60,-1.76,8.68,2.05,0.29,-0.25
2024-12-25 18:39:20,777,789,795,765,766,-5.09,0.13,9.11,-0.40,-0.01,0.15
2024-12-25 18:39:20,778,863,893,812,783,-4.97,-1.45,8.40,-0.63,-0.01,-0.20
2024-12-25 18:39:20,779,815,847,782,777,-4.97,-1.28,8.68,1.30,0.25,0.09
2024-12-25 18:39:20,782,786,797,766,771,-5.00,-0.31,9.35,-0.55,-0.07,0.00
2024-12-25 18:39:20,783,839,866,794,779,-5.04,-1.57,8.83,-0.86,0.10,-0.11
2024-12-25 18:39:20,783,850,863,792,781,-4.88,-2.05,8.12,0.93,0.09,-0.01
2024-12-25 18:39:20,784,788,803,766,774,-5.00,-1.10,8.47,-0.40,0.07,0.13
2024-12-25 18:39:20,781,801,829,777,775,-5.28,-1.25,8.52,-0.59,0.11,0.08
2024-12-25 18:39:20,785,819,860,796,782,-5.22,-2.21,8.55,-0.27,0.02,-0.10
2024-12-25 18:39:20,782,791,804,767,776,-5.38,-0.28,9.73,1.31,0.11,0.08
2024-12-25 18:39:20,782,804,816,772,774,-5.17,-0.93,8.97,-1.48,-0.16,-0.16
2024-12-25 18:39:20,784,823,859,796,782,-4.51,-3.16,7.60,0.00,-0.18,-0.00
2024-12-25 18:39:20,774,779,789,764,771,-4.81,-0.13,9.99,0.06,0.06,0.11
2024-12-25 18:39:20,777,798,811,773,772,-4.71,-1.97,9.03,-1.78,-0.12,-0.06
2024-12-25 18:39:20,783,815,843,795,781,-4.60,-3.63,6.89,1.41,-0.07,0.02
2024-12-25 18:39:20,777,789,799,770,773,-4.61,-1.07,9.17,-0.54,-0.08,0.11
2024-12-25 18:39:20,779,814,852,791,779,-4.46,-2.70,8.60,-0.87,-0.11,-0.09
2024-12-25 18:39:20,776,790,806,770,774,-4.93,-0.94,9.41,2.61,0.28,-0.02
2024-12-25 18:39:20,772,777,785,759,773,-4.80,0.36,9.02,0.37,-0.04,0.04
2024-12-25 18:39:20,773,780,786,761,768,-4.83,0.29,10.08,-1.36,0.08,-0.24
2024-12-25 18:39:20,785,805,840,789,783,-4.52,-2.21,8.74,-1.00,-0.49,0.11
2024-12-25 18:39:20,779,798,815,778,780,-4.50,-2.12,7.89,3.14,0.78,-0.13
2024-12-25 18:39:20,777,792,801,768,773,-4.75,-0.32,9.65,-2.05,0.15,0.08
2024-12-25 18:39:20,785,806,838,796,786,-3.69,-3.93,7.42,0.49,0.01,-0.02
2024-12-25 18:39:20,775,786,793,767,775,-4.67,1.37,11.40,0.12,-0.01,0.20
2024-12-25 18:39:20,780,803,828,787,782,-5.12,-1.52,8.61,-1.62,-0.19,-0.24
2024-12-25 18:39:20,785,804,836,794,783,-3.77,-2.80,8.01,1.35,0.15,0.11
2024-12-25 18:39:20,783,796,807,779,775,-4.56,0.66,10.92,-0.22,-0.18,0.04
2024-12-25 18:39:20,787,802,832,789,784,-4.95,-1.69,7.90,-1.42,-0.79,-0.18
2024-12-25 18:39:20,786,801,813,783,781,-3.96,-1.56,8.94,2.45,0.65,-0.15
2024-12-25 18:39:20,791,797,820,783,779,-3.19,-1.61,9.99,-1.99,-0.18,0.31
2024-12-25 18:39:20,790,805,837,801,789,-2.91,-3.69,8.22,0.18,-0.30,0.04
2024-12-25 18:39:20,776,778,792,766,773,-4.50,1.81,10.43,1.20,0.05,0.26
2024-12-25 18:39:20,781,794,804,776,775,-4.38,0.26,9.32,-3.01,-0.69,-0.32
2024-12-25 18:39:20,787,809,840,801,795,-3.50,-3.98,7.69,0.48,-0.02,-0.13
2024-12-25 18:39:20,776,790,795,772,777,-4.00,0.57,11.29,-0.26,0.06,0.14
2024-12-25 18:39:20,782,804,832,781,782,-3.20,-2.83,9.02,-1.68,-0.90,0.39
2024-12-25 18:39:20,780,804,827,784,781,-3.10,-4.08,7.81,1.48,0.18,-0.08
2024-12-25 18:39:20,777,789,796,773,775,-4.11,1.02,10.18,0.47,-0.06,0.28
2024-12-25 18:39:20,781,803,835,791,783,-4.02,-0.86,8.95,-1.62,-0.14,-0.32
2024-12-25 18:39:20,788,810,868,817,797,-3.10,-3.72,7.77,-0.72,-0.06,0.12
2024-12-25 18:39:20,783,791,814,781,783,-3.34,-0.10,8.59,3.36,0.90,0.07
2024-12-25 18:39:20,778,778,792,772,777,-4.27,1.41,8.18,-0.48,0.49,-0.06
2024-12-25 18:39:20,778,779,792,772,777,-3.77,1.69,9.81,0.92,0.03,0.40
2024-12-25 18:39:20,779,784,794,770,773,-3.97,3.17,8.98,-0.09,-0.24,-0.16
2024-12-25 18:39:20,781,782,799,772,771,-4.19,2.93,9.01,0.06,0.07,-0.06
2024-12-25 18:39:20,783,782,804,771,772,-3.85,3.05,9.04,-0.05,0.02,-0.09
2024-12-25 18:39:20,783,781,805,773,770,-3.69,2.55,9.26,-0.36,-0.07,-0.17
2024-12-25 18:39:20,784,783,804,773,772,-3.90,1.98,9.47,-0.10,0.04,-0.07
2024-12-25 18:39:20,787,784,808,774,774,-3.84,2.00,9.41,-0.08,0.05,-0.04
2024-12-25 18:39:20,786,783,807,775,775,-3.86,1.77,9.43,-0.06,0.10,-0.02
2024-12-25 18:39:20,789,784,808,776,775,-3.99,1.87,9.43,-0.04,0.13,0.01
2024-12-25 18:39:20,788,786,809,776,776,-4.37,1.87,9.19,-0.08,0.12,-0.02
2024-12-25 18:39:20,791,787,809,777,777,-4.29,1.54,9.29,-0.07,0.03,-0.04
2024-12-25 18:39:20,788,785,810,776,777,-4.47,1.77,9.07,-0.09,0.06,-0.01
2024-12-25 18:39:20,789,789,811,778,780,-4.40,1.62,9.22,-0.14,0.08,-0.04
2024-12-25 18:39:20,790,787,813,779,779,-4.39,1.55,9.27,-0.06,0.04,-0.03
2024-12-25 18:39:20,791,789,813,780,779,-4.51,1.50,9.16,-0.05,0.03,-0.03
2024-12-25 18:39:20,788,788,812,780,777,-4.45,1.47,9.21,-0.06,0.04,-0.01
2024-12-25 18:39:20,790,789,813,778,780,-4.71,1.31,9.14,-0.06,0.09,-0.05
2024-12-25 18:39:20,793,789,815,779,779,-4.69,1.32,9.09,-0.04,0.03,-0.01
2024-12-25 18:39:20,790,788,816,778,778,-4.63,1.33,9.12,-0.04,0.03,-0.02
2024-12-25 18:39:20,795,787,814,780,780,-4.72,1.35,9.08,-0.04,0.03,-0.02
2024-12-25 18:39:20,797,790,816,779,778,-4.71,1.31,9.08,-0.04,0.03,-0.02
2024-12-25 18:39:20,799,789,813,779,779,-4.69,1.31,9.11,-0.03,0.01,-0.01
2024-12-25 18:39:20,800,790,815,779,778,-4.65,1.34,9.11,-0.05,0.00,-0.00
2024-12-25 18:39:20,799,789,814,780,780,-4.55,1.37,9.15,-0.03,0.04,-0.02
2024-12-25 18:39:20,798,790,815,780,778,-4.68,1.29,9.05,-0.04,0.02,-0.01
2024-12-25 18:39:20,794,789,815,780,779,-4.66,1.30,9.07,-0.04,0.02,-0.01
2024-12-25 18:39:20,794,789,815,780,779,-4.76,1.26,9.06,-0.04,0.02,-0.01
2024-12-25 18:39:20,793,790,814,779,780,-4.65,1.29,9.12,-0.05,0.03,-0.01
2024-12-25 18:39:20,793,789,813,778,780,-4.69,1.27,9.07,-0.03,0.02,-0.01
2024-12-25 18:39:20,792,788,813,778,780,-4.73,1.26,9.04,-0.03,0.03,-0.02
2024-12-25 18:39:20,792,789,813,778,779,-4.70,1.29,9.11,-0.05,-0.02,-0.00
2024-12-25 18:39:20,794,790,813,779,779,-4.70,1.29,9.08,-0.05,0.03,-0.01
2024-12-25 18:39:20,794,788,815,780,778,-4.70,1.25,9.11,-0.04,0.04,-0.01
2024-12-25 18:39:20,795,789,816,778,779,-4.95,1.19,9.03,-0.03,0.05,-0.03
2024-12-25 18:39:20,794,791,817,779,778,-4.67,1.24,9.02,-0.06,0.07,-0.03
2024-12-25 18:39:20,793,790,814,780,778,-5.05,1.13,8.91,-0.05,0.07,-0.03
2024-12-25 18:39:20,794,790,815,779,778,-4.92,1.15,8.96,-0.04,0.04,-0.01
2024-12-25 18:39:20,794,790,815,780,778,-5.05,1.09,8.92,-0.05,0.02,-0.01
2024-12-25 18:39:20,794,790,815,782,779,-4.93,1.18,8.96,-0.05,0.02,0.01
2024-12-25 18:39:20,793,790,815,781,778,-4.95,1.14,8.97,-0.04,0.02,0.01
2024-12-25 18:39:20,795,788,814,782,778,-4.98,1.12,8.95,-0.02,0.06,-0.03
2024-12-25 18:39:20,794,789,815,779,779,-5.09,1.08,8.92,-0.04,0.01,-0.01
2024-12-25 18:39:20,793,791,814,781,779,-5.07,1.19,8.93,-0.05,-0.01,0.01
2024-12-25 18:39:20,793,790,815,780,778,-4.87,1.16,9.00,-0.04,0.01,0.00
2024-12-25 18:39:20,794,788,814,779,778,-4.84,1.17,8.97,-0.04,0.04,-0.02
2024-12-25 18:39:20,795,789,814,780,777,-4.94,1.18,8.92,-0.04,0.01,-0.00
2024-12-25 18:39:20,794,790,816,780,778,-4.78,1.19,8.97,-0.04,0.01,-0.01
2024-12-25 18:39:20,792,789,812,780,777,-4.93,1.19,8.92,-0.04,0.02,-0.01
2024-12-25 18:39:20,793,790,813,781,777,-4.83,1.20,8.94,-0.03,0.07,-0.04
2024-12-25 18:39:20,793,790,814,781,779,-5.00,1.19,8.96,-0.04,0.03,-0.01
2024-12-25 18:39:20,792,789,814,778,778,-4.96,1.13,9.03,-0.04,0.00,-0.00
2024-12-25 18:39:20,792,790,813,780,779,-4.99,1.17,8.94,-0.04,0.01,-0.01
2024-12-25 18:39:20,793,790,814,783,779,-4.91,1.19,8.98,-0.04,0.02,-0.01
2024-12-25 18:39:20,792,790,813,781,779,-4.94,1.21,8.98,-0.04,-0.00,-0.01
2024-12-25 18:39:20,793,788,814,780,779,-4.74,1.19,9.04,-0.04,0.00,-0.01
2024-12-25 18:39:20,793,790,815,781,778,-4.86,1.23,9.02,-0.06,0.09,-0.03
2024-12-25 18:39:20,793,788,816,779,778,-4.77,1.21,9.02,-0.02,0.01,-0.02
2024-12-25 18:39:20,793,789,811,778,776,-4.97,1.09,8.98,-0.04,0.02,-0.01
2024-12-25 18:39:20,793,789,812,781,779,-4.98,1.25,8.88,-0.04,0.01,-0.01
2024-12-25 18:39:20,796,790,814,779,777,-4.92,1.20,9.00,-0.04,0.04,-0.01
2024-12-25 18:39:20,794,789,812,780,777,-4.84,1.20,8.96,-0.03,0.03,-0.02
2024-12-25 18:39:20,792,791,815,780,778,-4.97,1.19,8.94,-0.04,0.00,-0.01
2024-12-25 18:39:20,792,789,814,780,777,-4.90,1.21,8.96,-0.04,0.02,-0.01
2024-12-25 18:39:20,790,789,814,781,778,-4.93,1.18,8.98,-0.03,0.03,-0.01
2024-12-25 18:39:20,792,787,812,777,777,-4.91,1.21,8.92,-0.04,0.02,-0.02
2024-12-25 18:39:20,793,788,814,779,777,-4.91,1.20,8.95,-0.04,0.03,-0.01
2024-12-25 18:39:20,794,790,814,779,778,-4.93,1.18,8.98,-0.03,0.02,-0.01
2024-12-25 18:39:20,791,789,813,782,780,-4.94,1.20,8.96,-0.04,0.03,-0.01
2024-12-25 18:39:20,791,789,814,781,777,-4.97,1.20,8.95,-0.04,0.03,-0.01
2024-12-25 18:39:20,792,788,814,780,779,-4.90,1.22,8.89,-0.04,0.03,-0.01
2024-12-25 18:39:20,794,790,814,782,778,-4.91,1.16,8.98,-0.05,0.02,-0.01
2024-12-25 18:39:20,794,789,814,780,777,-4.90,1.16,8.94,-0.05,0.01,-0.01
2024-12-25 18:39:20,794,790,815,778,778,-4.91,1.17,8.98,-0.04,0.02,-0.02
2024-12-25 18:39:20,792,790,814,781,779,-4.95,1.19,8.97,-0.02,0.00,-0.00
2024-12-25 18:39:20,792,788,814,780,779,-4.81,1.20,9.02,-0.04,0.00,-0.01
2024-12-25 18:39:20,792,788,814,782,778,-4.99,1.18,8.93,-0.04,0.05,-0.01
2024-12-25 18:39:20,793,790,814,782,779,-4.90,1.20,9.00,0.01,0.07,0.01
2024-12-25 18:39:20,793,790,815,782,779,-5.04,1.37,8.93,0.13,0.05,0.05
2024-12-25 18:39:20,792,790,814,781,778,-5.23,1.58,8.67,0.02,-0.10,0.16
2024-12-25 18:39:20,792,788,815,780,779,-4.81,1.90,8.93,-0.09,-0.07,0.03
2024-12-25 18:39:20,790,789,815,781,778,-4.64,1.68,8.98,-0.15,0.04,-0.02
2024-12-25 18:39:20,792,788,814,782,778,-4.50,1.64,9.19,-0.07,0.05,-0.03
2024-12-25 18:39:20,792,787,814,781,777,-4.56,1.53,9.11,-0.05,0.06,-0.02
2024-12-25 18:39:20,791,788,812,779,777,-4.47,1.45,9.15,-0.03,0.06,-0.05
2024-12-25 18:39:21,793,788,814,780,778,-4.55,1.51,9.18,-0.04,-0.00,-0.01
2024-12-25 18:39:21,791,788,814,779,778,-4.65,1.47,9.11,-0.05,0.02,-0.01
2024-12-25 18:39:21,790,787,811,779,778,-4.58,1.41,9.16,-0.06,0.03,-0.00
2024-12-25 18:39:21,791,787,812,781,777,-4.55,1.39,9.13,-0.05,0.08,-0.03
2024-12-25 18:39:21,791,789,816,780,780,-4.71,1.41,9.07,-0.06,0.03,-0.03
2024-12-25 18:39:21,792,787,812,780,778,-4.60,1.34,9.10,-0.04,0.04,-0.02
2024-12-25 18:39:21,790,789,813,781,778,-4.71,1.41,9.07,-0.02,0.05,-0.01
2024-12-25 18:39:21,793,788,815,779,779,-4.73,1.47,9.11,0.04,0.10,0.03
2024-12-25 18:39:21,791,790,817,782,777,-4.96,1.68,9.00,0.08,0.12,0.00
2024-12-25 18:39:21,793,790,816,783,776,-4.93,1.70,8.92,0.06,0.05,0.01
2024-12-25 18:39:21,792,790,817,782,775,-4.98,2.14,8.79,0.18,0.08,0.06
2024-12-25 18:39:21,789,790,819,780,773,-5.02,2.41,8.57,0.03,0.01,0.00
2024-12-25 18:39:21,786,794,817,781,773,-4.95,2.43,8.62,-0.04,-0.03,-0.02
2024-12-25 18:39:21,786,791,816,779,771,-4.96,2.44,8.62,-0.17,-0.08,-0.02
2024-12-25 18:39:21,788,790,812,783,770,-4.41,1.81,9.16,-0.34,-0.09,-0.14
2024-12-25 18:39:21,787,788,811,779,771,-4.59,1.51,9.11,-0.12,0.01,-0.03
2024-12-25 18:39:21,788,787,809,779,772,-4.57,1.42,9.20,-0.05,0.06,-0.04
2024-12-25 18:39:21,788,788,809,780,770,-4.53,1.41,9.11,-0.09,0.29,-0.12
2024-12-25 18:39:21,789,787,811,779,773,-4.98,1.29,8.87,-0.05,0.05,-0.01
2024-12-25 18:39:21,790,788,812,780,772,-5.01,1.28,8.91,-0.04,0.04,-0.01
2024-12-25 18:39:21,790,788,810,780,772,-5.01,1.27,8.89,-0.04,0.03,-0.02
2024-12-25 18:39:21,789,789,812,779,772,-5.07,1.24,8.85,-0.04,0.03,-0.01
2024-12-25 18:39:21,789,788,811,779,772,-5.08,1.24,8.87,-0.04,0.03,-0.01
2024-12-25 18:39:21,789,788,811,779,772,-5.07,1.26,8.84,-0.04,0.02,-0.01
2024-12-25 18:39:21,792,787,813,778,772,-5.10,1.22,8.86,-0.04,0.04,-0.01
2024-12-25 18:39:21,789,787,811,778,774,-5.06,1.26,8.87,-0.04,0.03,-0.02
2024-12-25 18:39:21,791,787,810,780,774,-5.08,1.24,8.84,-0.05,0.03,-0.01
2024-12-25 18:39:21,791,787,812,779,774,-5.11,1.23,8.84,-0.04,0.02,-0.01
2024-12-25 18:39:21,790,786,811,779,773,-5.09,1.24,8.86,-0.04,0.03,-0.01
2024-12-25 18:39:21,792,786,812,779,773,-5.12,1.24,8.83,-0.04,0.02,-0.01
2024-12-25 18:39:21,790,786,810,780,773,-5.11,1.22,8.82,-0.04,0.02,-0.01
2024-12-25 18:39:21,789,786,810,779,773,-5.10,1.24,8.85,-0.05,0.03,-0.01
2024-12-25 18:39:21,790,786,812,780,774,-5.08,1.25,8.83,-0.04,0.03,-0.01
2024-12-25 18:39:21,790,787,813,779,774,-5.15,1.25,8.79,-0.04,0.03,-0.01
2024-12-25 18:39:21,790,788,812,782,772,-5.17,1.22,8.82,-0.04,0.03,-0.01
2024-12-25 18:39:21,789,787,810,780,773,-5.09,1.29,8.80,-0.03,0.05,-0.01
2024-12-25 18:39:21,792,786,812,780,774,-5.45,1.17,8.68,-0.05,0.07,-0.01
2024-12-25 18:39:21,791,788,812,779,774,-5.28,1.23,8.74,0.02,0.05,0.05
2024-12-25 18:39:21,792,789,812,780,775,-5.54,1.37,8.55,0.01,0.18,0.05
2024-12-25 18:39:21,792,791,814,781,776,-5.50,1.46,8.38,-0.06,-0.02,-0.05
2024-12-25 18:39:21,791,787,811,780,775,-5.48,1.26,8.51,-0.12,-0.08,-0.03
2024-12-25 18:39:21,790,788,812,782,775,-5.28,1.23,8.63,-0.05,-0.04,-0.01
2024-12-25 18:39:21,790,788,811,778,774,-5.31,1.16,8.65,-0.04,0.00,-0.01
2024-12-25 18:39:21,790,787,810,780,775,-5.35,1.21,8.63,-0.04,-0.00,-0.01
2024-12-25 18:39:21,790,786,811,779,775,-5.34,1.21,8.63,-0.04,-0.02,-0.00
2024-12-25 18:39:21,791,787,811,779,775,-5.29,1.24,8.81,-0.01,-0.03,-0.01
2024-12-25 18:39:21,791,786,810,780,775,-4.89,1.12,9.03,-0.09,-0.09,0.00
2024-12-25 18:39:21,790,787,811,780,774,-4.93,1.17,8.94,-0.05,0.03,-0.00
2024-12-25 18:39:21,791,787,810,779,775,-4.86,1.19,8.96,-0.05,0.06,-0.02
2024-12-25 18:39:21,788,785,813,780,775,-5.11,1.17,8.87,-0.06,0.07,-0.02
2024-12-25 18:39:21,789,787,811,780,776,-5.10,1.21,8.90,-0.04,0.02,0.01
2024-12-25 18:39:21,791,788,812,780,777,-5.16,1.04,8.96,0.04,0.10,-0.02
2024-12-25 18:39:21,791,787,813,781,775,-5.37,1.36,8.69,0.02,0.08,-0.05
2024-12-25 18:39:21,793,786,814,780,776,-5.09,1.26,8.78,-0.02,0.09,-0.03
2024-12-25 18:39:21,795,788,813,781,777,-5.42,1.63,8.66,0.14,0.26,-0.19
2024-12-25 18:39:21,792,788,814,782,775,-5.68,1.22,8.37,-0.02,0.01,0.02
2024-12-25 18:39:21,792,789,813,779,776,-5.38,1.11,8.60,-0.09,0.06,-0.02
2024-12-25 18:39:21,793,787,813,781,775,-5.60,1.10,8.46,-0.09,0.14,-0.01
2024-12-25 18:39:21,794,788,813,781,776,-5.75,0.99,8.48,0.04,0.01,0.00
2024-12-25 18:39:21,792,788,812,780,776,-5.08,1.33,8.58,0.05,-0.27,0.06
2024-12-25 18:39:21,793,788,812,782,776,-5.46,1.32,8.68,-0.13,0.15,-0.02
2024-12-25 18:39:21,793,788,811,780,774,-5.34,1.38,8.58,-0.08,0.04,0.04
2024-12-25 18:39:21,789,787,811,779,775,-5.58,1.19,8.55,0.02,0.02,0.07
2024-12-25 18:39:21,790,787,813,780,776,-4.88,1.47,8.66,-0.03,-0.17,-0.01
2024-12-25 18:39:21,792,787,813,780,775,-4.96,1.28,8.81,-0.07,-0.23,0.02
2024-12-25 18:39:21,791,787,811,779,775,-5.20,1.15,8.71,-0.09,-0.07,-0.04
2024-12-25 18:39:21,789,788,812,780,774,-4.86,1.19,9.01,-0.08,0.01,-0.01
2024-12-25 18:39:21,791,787,812,781,774,-5.12,1.20,8.70,-0.06,0.05,0.00
2024-12-25 18:39:21,791,789,813,782,775,-4.79,1.11,9.00,-0.02,0.10,-0.06
2024-12-25 18:39:21,790,786,811,780,775,-5.20,1.18,8.70,-0.01,0.07,-0.02
2024-12-25 18:39:21,788,788,813,781,776,-5.09,1.29,8.76,0.11,0.09,0.02
2024-12-25 18:39:21,791,788,816,781,775,-5.09,1.38,8.62,0.08,0.02,-0.03
2024-12-25 18:39:21,790,787,809,778,775,-5.23,1.53,8.90,-0.03,-0.12,0.03
2024-12-25 18:39:21,790,784,799,773,772,-5.35,1.36,8.75,0.16,0.10,-0.01
2024-12-25 18:39:21,791,784,801,772,768,-5.30,1.97,8.59,0.15,-0.13,0.23
2024-12-25 18:39:21,789,783,811,774,768,-4.84,2.46,8.68,-0.09,0.04,0.02
2024-12-25 18:39:21,790,786,816,775,772,-5.32,2.16,8.51,-0.33,0.33,-0.18
2024-12-25 18:39:21,792,787,816,777,773,-5.41,1.72,8.64,-0.11,0.08,-0.15
2024-12-25 18:39:21,791,786,813,774,773,-5.26,1.38,8.65,-0.11,0.03,-0.01
2024-12-25 18:39:21,793,786,812,776,774,-5.11,1.36,8.75,-0.10,0.17,-0.03
2024-12-25 18:39:21,792,785,813,777,777,-5.41,1.27,8.55,0.02,-0.00,-0.10
2024-12-25 18:39:21,790,787,813,778,776,-5.25,1.34,8.61,-0.05,-0.01,0.03
2024-12-25 18:39:21,793,786,813,775,775,-4.96,1.35,8.83,-0.06,-0.10,0.07
2024-12-25 18:39:21,792,785,813,778,777,-5.33,1.12,8.58,-0.06,0.25,0.01
2024-12-25 18:39:21,794,787,815,779,777,-5.38,1.45,8.64,0.01,0.02,-0.04
2024-12-25 18:39:21,792,786,812,779,777,-5.11,1.47,8.68,-0.05,0.08,0.02
2024-12-25 18:39:21,791,785,813,776,775,-5.66,1.39,8.43,-0.02,0.08,-0.06
2024-12-25 18:39:21,790,785,809,777,775,-5.46,1.34,8.57,0.02,0.03,0.07
2024-12-25 18:39:21,791,782,798,773,774,-5.56,1.56,8.49,0.07,0.04,-0.02
2024-12-25 18:39:21,793,781,788,766,770,-5.68,1.56,8.40,-0.04,-0.06,-0.03
2024-12-25 18:39:21,791,780,795,766,768,-5.29,2.11,8.46,0.08,-0.01,0.04
2024-12-25 18:39:21,792,780,807,769,769,-4.96,1.83,8.51,-0.40,0.12,-0.19
2024-12-25 18:39:21,796,782,810,774,771,-5.72,1.20,8.33,-0.11,0.05,-0.03
2024-12-25 18:39:21,793,783,808,775,772,-5.64,1.18,8.43,-0.04,0.00,-0.01
2024-12-25 18:39:21,792,784,808,773,769,-5.70,1.14,8.36,-0.04,0.04,-0.01
2024-12-25 18:39:21,793,784,810,774,772,-5.68,1.11,8.44,-0.04,0.03,-0.01
2024-12-25 18:39:21,792,784,809,774,772,-5.71,1.12,8.38,-0.04,0.02,-0.01
2024-12-25 18:39:21,793,783,807,774,771,-5.67,1.12,8.40,-0.05,0.03,-0.01
2024-12-25 18:39:21,793,784,806,774,772,-5.69,1.11,8.40,-0.04,0.03,-0.01
2024-12-25 18:39:21,793,783,808,776,771,-5.73,1.05,8.41,-0.04,0.02,-0.01
2024-12-25 18:39:21,793,785,809,775,772,-5.66,1.13,8.40,-0.04,0.03,-0.01
2024-12-25 18:39:21,794,783,806,772,772,-5.67,1.08,8.41,-0.03,0.02,-0.01
2024-12-25 18:39:21,792,785,814,774,773,-6.00,1.58,8.26,0.43,0.30,0.21
2024-12-25 18:39:21,792,784,803,770,772,-5.72,2.31,8.02,0.09,-0.05,0.03
2024-12-25 18:39:21,786,781,792,763,769,-5.62,1.92,8.19,0.01,-0.08,0.03
2024-12-25 18:39:21,786,783,805,767,767,-5.10,2.62,7.99,-0.29,-0.06,-0.15
2024-12-25 18:39:21,795,785,812,772,770,-5.90,1.38,8.29,-0.16,0.05,-0.06
2024-12-25 18:39:21,807,784,810,774,772,-5.74,1.24,8.40,-0.07,0.06,-0.02
2024-12-25 18:39:21,821,783,810,773,771,-5.75,1.25,8.36,-0.05,0.04,-0.02
2024-12-25 18:39:21,820,783,811,773,770,-5.75,1.27,8.31,-0.06,0.04,-0.02
2024-12-25 18:39:21,822,784,810,773,772,-5.78,1.24,8.27,-0.05,0.03,-0.01
2024-12-25 18:39:21,842,784,812,776,772,-5.81,1.20,8.29,-0.05,0.03,-0.01
2024-12-25 18:39:21,814,784,810,773,771,-5.81,1.16,8.29,-0.06,0.02,-0.02
2024-12-25 18:39:21,802,784,808,773,773,-6.08,1.12,8.32,-0.07,-0.04,0.03
2024-12-25 18:39:21,776,785,810,775,773,-5.52,1.26,8.40,-0.03,-0.01,0.03
2024-12-25 18:39:21,795,786,812,775,776,-5.42,1.40,8.43,-0.05,-0.02,-0.01
2024-12-25 18:39:21,817,785,814,775,776,-5.37,1.24,8.55,-0.05,0.06,-0.02
2024-12-25 18:39:21,790,783,811,775,776,-5.43,1.47,8.51,-0.07,-0.10,0.01
2024-12-25 18:39:21,761,784,810,774,774,-4.99,1.26,8.58,-0.05,-0.03,-0.01
2024-12-25 18:39:21,824,785,810,775,774,-5.29,1.19,8.59,-0.04,0.08,-0.00
2024-12-25 18:39:21,822,786,811,775,775,-5.56,1.21,8.47,-0.06,-0.01,-0.00
2024-12-25 18:39:21,770,785,810,776,774,-5.41,1.17,8.55,-0.06,0.04,-0.02
2024-12-25 18:39:21,792,787,812,774,773,-5.49,1.09,8.53,-0.02,0.01,-0.02
2024-12-25 18:39:21,829,789,812,775,776,-5.71,1.19,8.47,-0.06,0.07,-0.00
2024-12-25 18:39:21,788,789,812,776,774,-5.53,1.14,8.58,-0.03,0.03,-0.01
2024-12-25 18:39:21,806,786,810,774,773,-5.70,1.07,8.46,-0.03,0.03,-0.02
2024-12-25 18:39:21,813,787,810,777,774,-5.53,1.69,8.80,0.24,-0.36,0.18
2024-12-25 18:39:21,791,786,802,772,776,-3.09,0.64,9.68,-0.80,-1.06,-0.72
2024-12-25 18:39:21,793,787,798,770,773,-2.57,1.31,9.56,-0.19,-0.21,-0.18
2024-12-25 18:39:21,791,787,798,769,774,-2.65,0.91,9.97,-0.05,-0.07,-0.12
2024-12-25 18:39:21,794,787,799,771,774,-2.60,1.10,10.35,0.06,-0.01,-0.02
2024-12-25 18:39:21,791,787,797,770,774,-2.37,0.64,10.21,0.09,-0.22,0.17
2024-12-25 18:39:21,793,788,798,770,774,-2.40,1.26,10.15,-0.11,0.10,-0.05
2024-12-25 18:39:21,791,789,798,772,774,-2.61,1.49,10.14,0.02,0.21,0.04
2024-12-25 18:39:21,790,787,797,771,773,-3.01,1.01,10.61,-0.70,0.26,-0.26
2024-12-25 18:39:21,793,789,798,773,775,-2.97,-0.74,9.14,-0.04,0.41,0.06
2024-12-25 18:39:21,792,789,800,772,775,-3.17,0.06,10.38,0.01,-0.00,0.00
2024-12-25 18:39:21,793,789,798,772,775,-3.70,-0.03,9.94,0.03,-0.03,0.02
2024-12-25 18:39:21,788,787,799,772,775,-3.49,-0.01,9.76,0.06,0.11,-0.01
2024-12-25 18:39:21,792,789,800,773,775,-2.99,-0.50,8.95,-0.18,0.17,-0.04
2024-12-25 18:39:21,791,788,799,771,774,-3.01,0.00,9.58,-0.34,0.05,0.07
2024-12-25 18:39:21,791,789,796,771,774,-3.17,-0.56,9.49,-0.50,-0.01,-0.19
2024-12-25 18:39:21,793,788,796,772,779,-3.13,0.60,10.23,0.37,-0.47,0.06
2024-12-25 18:39:21,794,789,795,774,778,-3.13,1.36,9.45,0.33,-0.05,0.49
2024-12-25 18:39:21,792,786,794,773,777,-3.70,1.68,9.88,-0.03,0.13,0.12
2024-12-25 18:39:21,791,790,795,773,776,-4.50,1.41,9.28,0.18,0.42,-0.09
2024-12-25 18:39:21,789,788,794,772,778,-3.68,1.67,8.72,-0.21,0.22,0.17
2024-12-25 18:39:21,791,786,795,771,774,-4.39,2.32,9.29,0.30,0.13,0.10
2024-12-25 18:39:21,794,784,797,768,773,-4.34,2.74,8.74,-0.11,0.08,-0.07
2024-12-25 18:39:21,794,786,800,769,770,-3.87,1.85,9.53,-0.42,-0.07,-0.21
2024-12-25 18:39:21,792,785,798,770,771,-5.34,3.56,6.94,-0.04,0.10,0.12
2024-12-25 18:39:21,789,784,798,771,771,-2.74,1.82,8.26,-0.25,-0.60,-0.08
2024-12-25 18:39:21,789,786,798,770,771,-4.40,0.55,8.26,-0.59,-1.03,0.29
2024-12-25 18:39:21,788,785,798,771,770,-2.96,1.91,9.90,0.10,-0.79,0.09
2024-12-25 18:39:21,789,785,800,771,770,-1.28,1.57,10.26,-0.06,-0.23,0.12
2024-12-25 18:39:21,787,787,800,772,771,-2.09,1.27,10.22,-0.09,0.04,0.06
2024-12-25 18:39:21,787,786,801,769,771,-2.10,1.31,10.08,-0.03,0.16,-0.06
2024-12-25 18:39:21,789,787,805,772,770,-3.51,1.31,9.74,0.02,0.21,0.12
2024-12-25 18:39:21,788,787,804,772,770,-2.88,1.76,10.53,0.06,0.06,-0.12
2024-12-25 18:39:21,788,787,802,772,773,-3.74,1.31,9.43,0.13,-0.36,0.67
2024-12-25 18:39:21,789,789,797,768,772,0.80,2.78,9.20,0.64,-0.29,0.10
2024-12-25 18:39:21,792,780,792,763,770,-5.36,3.17,8.90,0.10,0.72,-0.40
2024-12-25 18:39:21,791,783,796,764,770,-4.11,2.98,8.80,0.29,0.11,-0.38
2024-12-25 18:39:21,788,784,801,764,770,-3.49,3.29,9.06,0.19,0.00,-0.24
2024-12-25 18:39:21,787,785,809,768,770,-3.50,3.06,8.98,-0.18,0.06,-0.05
2024-12-25 18:39:21,790,784,814,770,771,-4.92,2.69,8.79,-0.07,-0.11,0.08
2024-12-25 18:39:21,791,784,813,770,772,-4.70,1.99,9.04,-0.20,-0.11,-0.02
2024-12-25 18:39:21,793,785,815,771,774,-3.90,2.38,9.26,-0.09,0.02,-0.02
2024-12-25 18:39:21,788,786,815,772,773,-4.35,2.16,9.17,-0.05,0.03,-0.01
2024-12-25 18:39:21,791,785,815,771,772,-4.28,2.13,9.26,-0.05,0.02,-0.01
2024-12-25 18:39:21,791,788,813,770,772,-4.03,2.09,9.11,-0.04,0.03,-0.05
2024-12-25 18:39:21,791,788,814,771,774,-4.25,2.14,9.18,-0.04,0.04,0.01
2024-12-25 18:39:21,790,787,814,771,774,-4.39,2.04,9.14,-0.05,0.04,-0.01
2024-12-25 18:39:21,790,785,815,772,772,-4.24,2.10,9.15,-0.04,0.06,-0.04
2024-12-25 18:39:21,792,787,815,772,775,-4.45,1.95,9.14,-0.04,0.03,-0.05
2024-12-25 18:39:21,792,787,814,774,773,-4.34,1.95,9.12,-0.05,0.03,-0.03
2024-12-25 18:39:21,790,787,813,771,773,-4.44,2.04,9.01,-0.05,0.03,-0.03
2024-12-25 18:39:21,792,786,814,771,774,-4.57,1.74,9.22,-0.04,0.10,-0.04
2024-12-25 18:39:21,794,788,814,773,774,-4.84,1.76,9.01,-0.05,0.03,-0.04
2024-12-25 18:39:21,792,786,813,773,775,-4.49,1.70,9.14,-0.04,0.05,-0.03
2024-12-25 18:39:21,793,787,812,772,774,-5.21,2.09,8.98,-0.03,0.27,0.05
2024-12-25 18:39:21,793,788,806,772,773,-4.00,2.55,8.74,0.20,-0.81,0.41
2024-12-25 18:39:21,791,792,805,776,773,-2.65,2.84,8.03,-0.17,-0.18,0.20
2024-12-25 18:39:21,792,792,805,776,773,-3.04,2.49,8.56,-0.48,0.29,-0.13
2024-12-25 18:39:21,791,792,806,774,772,-4.24,1.69,9.99,-0.34,0.17,-0.01
2024-12-25 18:39:21,791,793,806,774,772,-4.10,1.75,9.55,-0.22,-0.50,-0.11
2024-12-25 18:39:21,792,791,809,774,772,-3.10,1.35,9.95,0.05,-0.04,-0.10
2024-12-25 18:39:21,790,790,807,774,772,-3.01,1.79,9.60,-0.00,-0.16,0.04
2024-12-25 18:39:21,790,790,806,773,770,-3.23,1.33,9.73,0.12,0.05,0.06
2024-12-25 18:39:21,793,793,808,775,771,-2.63,1.23,10.11,-0.29,-0.07,-0.34
2024-12-25 18:39:21,796,795,813,775,771,-3.88,0.17,9.71,-0.14,-0.40,-0.07
2024-12-25 18:39:21,795,806,827,786,786,-1.82,0.03,10.39,-0.14,-0.11,-0.22
2024-12-25 18:39:21,796,811,834,789,783,-1.05,-0.57,10.53,-0.28,0.24,-0.27
2024-12-25 18:39:21,793,819,835,788,783,-2.84,-0.88,10.03,0.25,0.53,0.01
2024-12-25 18:39:21,791,796,810,784,780,-3.29,0.78,9.88,1.24,0.10,0.20
2024-12-25 18:39:21,790,785,797,770,772,-2.50,1.81,10.02,0.23,0.12,0.20
2024-12-25 18:39:21,791,782,800,768,771,-3.05,2.06,9.68,-0.22,0.12,0.02
2024-12-25 18:39:21,792,784,805,772,771,-3.85,1.91,9.61,-0.14,0.15,-0.11
2024-12-25 18:39:21,792,785,807,773,772,-3.44,1.64,9.75,-0.07,0.07,-0.04
2024-12-25 18:39:21,792,786,809,774,774,-3.56,1.64,9.64,-0.08,0.03,-0.02
2024-12-25 18:39:21,791,784,808,773,774,-3.48,1.57,9.71,-0.09,0.07,-0.02
2024-12-25 18:39:21,794,785,810,773,775,-3.52,1.53,9.67,-0.07,0.07,-0.04
2024-12-25 18:39:21,794,786,809,773,775,-3.53,1.45,9.68,-0.08,0.02,-0.03
2024-12-25 18:39:21,793,786,808,774,775,-3.56,1.38,9.75,-0.06,0.05,-0.03
2024-12-25 18:39:21,791,786,809,773,773,-3.29,2.29,9.29,-0.32,-0.54,0.14
2024-12-25 18:39:21,794,793,813,772,772,-0.13,1.77,12.01,-2.57,-2.69,0.04
2024-12-25 18:39:21,789,801,835,780,777,-1.33,-3.43,9.63,-0.85,0.84,0.47
2024-12-25 18:39:21,787,795,817,780,776,-4.13,-3.34,8.44,1.34,0.84,-0.22
2024-12-25 18:39:21,789,791,804,777,777,-2.69,-2.00,9.61,0.56,-0.20,-0.40
2024-12-25 18:39:21,790,795,811,780,777,-1.61,-1.75,9.95,0.06,0.01,0.29
2024-12-25 18:39:21,790,792,804,777,775,-3.00,-0.61,9.76,0.27,-0.20,0.24
2024-12-25 18:39:21,786,783,790,770,772,-2.46,-0.04,10.27,0.89,0.01,0.38
2024-12-25 18:39:21,784,784,792,769,770,-2.32,-0.37,10.17,-0.24,0.19,0.03
2024-12-25 18:39:21,787,786,800,775,771,-2.10,0.26,9.86,0.09,-0.12,-0.12
2024-12-25 18:39:21,788,790,815,782,774,-2.61,0.03,10.61,-1.01,0.01,-0.88
2024-12-25 18:39:21,790,798,828,788,778,-1.41,-1.92,10.40,-0.18,0.16,-0.07
2024-12-25 18:39:21,787,798,827,787,777,-0.89,-2.18,10.50,-0.28,0.01,-0.08
2024-12-25 18:39:21,788,797,825,789,779,-1.63,-1.87,9.95,0.07,0.04,-0.08
2024-12-25 18:39:21,786,798,819,785,778,-2.05,-2.07,10.21,0.07,0.05,-0.10
2024-12-25 18:39:21,789,796,820,786,778,-2.57,-2.15,10.30,-0.10,0.10,0.01
2024-12-25 18:39:21,789,796,821,786,777,-2.50,-2.30,9.66,-0.34,0.04,0.18
2024-12-25 18:39:21,787,796,821,786,778,-1.13,-2.67,10.38,-0.03,-0.11,0.09
2024-12-25 18:39:21,787,795,822,786,778,-2.18,-2.80,9.87,-0.22,-0.25,0.03
2024-12-25 18:39:21,787,797,823,788,778,-1.58,-3.02,9.74,-0.20,-0.20,0.12
2024-12-25 18:39:21,791,795,821,787,778,-0.62,-3.00,10.01,-0.23,-0.11,0.14
2024-12-25 18:39:21,792,799,822,788,781,-1.30,-3.86,9.94,-0.32,-0.04,0.07
2024-12-25 18:39:21,791,796,820,786,779,-0.99,-3.90,9.63,0.14,0.09,0.00
2024-12-25 18:39:21,792,795,805,781,776,-1.45,-2.82,10.44,0.20,-0.07,-0.12
2024-12-25 18:39:21,795,793,800,780,776,-1.41,-2.67,9.70,-0.02,-0.21,-0.01
2024-12-25 18:39:21,795,795,806,780,776,-0.51,-2.89,10.40,-0.16,-0.06,0.12
2024-12-25 18:39:21,797,796,810,782,776,-0.81,-3.29,10.04,0.16,0.47,0.04
2024-12-25 18:39:21,792,795,809,779,777,-2.33,-2.48,10.03,0.26,0.03,-0.13
2024-12-25 18:39:21,792,797,812,781,776,-1.83,-1.21,10.53,0.23,0.10,0.10
2024-12-25 18:39:21,794,797,816,784,777,-1.93,-2.13,9.77,-0.05,0.02,0.00
2024-12-25 18:39:21,793,795,814,780,775,-2.19,-2.06,10.00,-0.11,-0.87,0.12
2024-12-25 18:39:21,792,797,816,780,776,-2.79,-1.80,9.85,-0.22,0.49,-0.32
2024-12-25 18:39:21,793,796,818,780,776,-1.85,-1.37,11.48,-0.37,-0.03,-0.01
2024-12-25 18:39:21,792,796,819,782,776,-0.75,-3.28,9.55,-0.36,-0.41,-0.16
2024-12-25 18:39:21,792,797,819,781,777,-0.45,-2.83,9.11,-0.14,-0.24,-0.01
2024-12-25 18:39:21,793,795,819,782,776,-0.77,-4.37,9.98,-0.30,-0.22,0.12
2024-12-25 18:39:21,792,797,818,784,776,0.44,-4.08,9.24,0.14,0.21,-0.33
2024-12-25 18:39:21,792,797,819,782,776,-0.54,-2.83,9.97,-0.14,0.04,0.01
2024-12-25 18:39:21,793,795,819,782,776,-0.97,-3.16,10.42,0.01,0.20,0.19
2024-12-25 18:39:21,792,795,819,783,776,-0.14,-2.90,10.24,-0.02,-0.04,0.01
2024-12-25 18:39:21,791,795,818,781,777,-0.77,-3.09,9.86,-0.10,0.12,-0.05
2024-12-25 18:39:21,792,797,820,783,777,-0.36,-3.17,10.07,0.07,-0.01,-0.04
2024-12-25 18:39:21,791,797,818,782,776,-0.42,-3.36,9.75,-0.30,-0.25,-0.13
2024-12-25 18:39:21,792,796,819,783,777,-0.31,-3.53,9.63,-0.03,-0.06,0.05
2024-12-25 18:39:21,793,797,820,783,776,-0.28,-3.48,10.37,-0.01,-0.09,0.09
2024-12-25 18:39:21,793,797,820,784,776,-0.44,-2.53,10.08,0.07,0.10,0.09
2024-12-25 18:39:21,793,795,819,784,777,-0.61,-2.29,10.16,0.17,0.00,-0.02
2024-12-25 18:39:21,792,796,820,783,777,-0.86,-2.11,10.56,0.02,0.00,0.01
2024-12-25 18:39:21,793,797,821,782,777,-0.75,-2.12,10.34,-0.05,-0.02,0.01
2024-12-25 18:39:21,790,797,820,783,776,-0.30,-2.09,10.49,0.04,0.05,0.10
2024-12-25 18:39:21,790,794,817,782,776,-0.84,-2.08,10.27,-0.09,-0.01,-0.05
2024-12-25 18:39:21,792,796,820,785,776,-0.87,-2.49,10.34,0.03,0.16,0.03
2024-12-25 18:39:21,792,796,819,783,779,-2.19,-2.73,10.55,-0.65,0.85,0.09
2024-12-25 18:39:21,790,795,818,782,779,-2.39,-4.29,8.98,-1.13,0.80,-0.41
2024-12-25 18:39:21,790,786,796,776,775,-3.08,-2.48,8.77,1.80,-0.91,0.67
2024-12-25 18:39:21,781,775,783,769,773,-2.62,0.65,10.55,1.10,-0.17,0.32
2024-12-25 18:39:21,777,772,782,765,774,-2.83,1.68,10.17,0.10,0.29,0.01
2024-12-25 18:39:21,776,770,785,761,772,-3.41,1.53,10.06,-0.32,0.17,-0.18
2024-12-25 18:39:21,772,770,780,761,772,-3.08,0.87,10.00,-0.03,0.01,-0.08
2024-12-25 18:39:21,769,770,781,761,771,-2.71,1.01,10.00,-0.09,-0.01,-0.10
2024-12-25 18:39:21,772,771,780,760,771,-2.94,0.72,10.10,-0.17,-0.02,-0.05
2024-12-25 18:39:21,769,771,781,761,772,-3.06,0.74,10.01,-0.00,-0.04,-0.02
2024-12-25 18:39:21,772,772,782,761,771,-3.14,0.58,9.86,-0.11,0.02,-0.02
2024-12-25 18:39:21,773,771,782,760,771,-3.12,0.44,9.95,-0.09,0.05,-0.02
2024-12-25 18:39:21,774,772,783,760,770,-3.22,0.40,10.05,-0.08,0.08,-0.08
2024-12-25 18:39:21,777,774,784,760,771,-3.21,0.27,9.92,-0.12,0.06,-0.04
2024-12-25 18:39:21,776,774,784,759,770,-3.36,0.34,10.02,-0.00,0.06,-0.01
2024-12-25 18:39:21,778,777,784,762,772,-3.21,0.24,9.76,-0.03,0.06,-0.02
2024-12-25 18:39:21,779,777,786,762,771,-3.50,0.30,9.98,-0.05,0.08,-0.03
2024-12-25 18:39:21,779,777,787,761,771,-3.54,0.21,9.86,-0.10,0.02,0.00
2024-12-25 18:39:21,780,778,787,763,773,-3.40,0.11,9.73,-0.06,0.02,-0.01
2024-12-25 18:39:21,780,777,787,763,772,-3.36,0.23,9.97,-0.03,-0.03,-0.04
2024-12-25 18:39:21,780,779,788,764,771,-3.33,0.10,9.90,-0.01,-0.04,-0.06
2024-12-25 18:39:21,778,780,790,763,771,-3.25,0.00,9.94,-0.04,0.03,-0.02
2024-12-25 18:39:21,782,780,790,764,772,-3.24,0.04,9.91,-0.15,0.07,0.03
2024-12-25 18:39:21,783,780,791,764,771,-3.32,0.01,9.95,-0.04,0.04,-0.02
2024-12-25 18:39:21,782,780,788,763,771,-3.49,-0.20,9.87,-0.08,0.04,-0.09
2024-12-25 18:39:21,783,781,790,764,772,-3.23,-0.25,9.68,-0.02,-0.01,0.01
2024-12-25 18:39:21,782,780,793,765,771,-3.35,-0.15,10.08,-0.05,0.02,0.02
2024-12-25 18:39:21,784,780,793,766,773,-3.36,-0.47,9.86,-0.21,0.08,-0.06
2024-12-25 18:39:21,786,780,790,766,772,-3.50,-0.33,9.50,0.22,-0.10,0.11
2024-12-25 18:39:21,784,776,785,762,771,-3.36,-0.02,9.87,-0.02,0.12,-0.04
2024-12-25 18:39:21,783,776,783,761,772,-3.36,-0.15,9.82,0.01,0.00,0.00
2024-12-25 18:39:21,782,776,784,762,772,-3.42,-0.05,9.88,-0.07,0.04,-0.05
2024-12-25 18:39:21,783,778,788,761,770,-3.43,-0.12,9.80,-0.04,0.00,-0.02
2024-12-25 18:39:21,782,778,786,760,771,-3.36,-0.19,9.82,-0.02,-0.01,0.01
2024-12-25 18:39:21,784,777,787,762,771,-3.45,-0.14,9.93,-0.02,-0.01,-0.02
2024-12-25 18:39:21,783,778,787,762,770,-3.39,-0.17,9.90,-0.03,-0.00,-0.03
2024-12-25 18:39:21,784,780,788,763,772,-3.32,-0.21,9.88,-0.02,0.03,-0.01
2024-12-25 18:39:21,784,779,788,762,772,-3.37,-0.20,10.02,-0.05,0.06,-0.02
2024-12-25 18:39:21,783,778,789,763,771,-3.38,-0.16,9.88,-0.07,0.04,-0.04
2024-12-25 18:39:21,784,779,789,762,772,-3.35,-0.20,9.82,-0.03,0.03,-0.02
2024-12-25 18:39:21,785,778,788,763,771,-3.42,-0.11,9.90,-0.01,0.03,-0.01
2024-12-25 18:39:21,782,780,790,764,770,-3.34,-0.05,9.96,-0.05,0.02,-0.02
2024-12-25 18:39:21,784,778,787,762,772,-3.32,-0.13,9.84,-0.04,0.03,-0.03
2024-12-25 18:39:21,783,779,790,763,770,-3.32,-0.14,9.84,-0.02,-0.01,-0.01
2024-12-25 18:39:21,781,778,788,763,772,-3.36,-0.18,9.96,-0.05,0.03,-0.01
2024-12-25 18:39:21,783,777,787,763,772,-3.24,-0.00,9.88,-0.02,0.06,-0.01
2024-12-25 18:39:21,785,778,790,765,772,-3.45,-0.12,10.25,0.03,-0.02,-0.02
2024-12-25 18:39:21,783,778,791,761,772,-2.99,-0.27,9.50,-0.15,0.01,-0.11
2024-12-25 18:39:21,783,782,789,763,770,-3.71,-0.01,10.43,0.08,0.19,0.06
2024-12-25 18:39:21,783,779,789,764,770,-3.20,-0.31,9.93,-0.25,0.00,-0.00
2024-12-25 18:39:21,784,781,789,763,770,-3.34,-0.10,10.12,-0.15,-0.02,-0.01
2024-12-25 18:39:21,784,779,793,764,771,-3.39,-1.18,8.74,0.28,0.15,0.18
2024-12-25 18:39:21,784,779,791,762,772,-3.49,-0.01,10.51,0.06,0.05,0.00
2024-12-25 18:39:21,783,780,790,763,772,-3.28,-0.08,9.84,-0.08,0.06,-0.04
2024-12-25 18:39:21,785,780,791,766,772,-3.14,-0.10,9.84,0.06,-0.04,-0.05
2024-12-25 18:39:21,784,779,791,763,770,-3.16,-0.18,10.29,-0.25,0.02,-0.03
2024-12-25 18:39:21,786,782,792,765,772,-3.21,-0.67,9.24,0.10,0.07,-0.01
2024-12-25 18:39:21,785,780,792,763,770,-3.23,-0.21,10.08,0.01,0.08,0.07
2024-12-25 18:39:21,784,778,788,764,771,-3.02,0.24,10.25,0.16,0.02,-0.04
2024-12-25 18:39:21,783,779,788,764,772,-3.24,-0.14,9.76,-0.05,0.10,0.06
2024-12-25 18:39:21,786,781,787,762,771,-2.99,0.29,10.09,-0.00,0.10,-0.01
2024-12-25 18:39:21,782,778,786,763,771,-3.27,0.02,9.81,-0.04,0.05,0.04
2024-12-25 18:39:21,785,780,792,764,771,-3.19,0.16,9.86,-0.04,0.06,-0.03
2024-12-25 18:39:21,785,781,791,767,772,-3.40,0.12,10.10,-0.05,0.02,-0.06
2024-12-25 18:39:21,784,781,789,764,771,-3.11,0.11,9.94,-0.05,0.00,-0.05
2024-12-25 18:39:21,781,780,789,765,772,-3.28,0.06,9.86,-0.03,0.01,-0.03
2024-12-25 18:39:21,782,781,791,765,771,-3.33,0.00,9.88,-0.04,0.03,-0.04
2024-12-25 18:39:21,779,782,793,766,770,-3.27,0.00,9.92,-0.07,0.05,-0.07
2024-12-25 18:39:21,774,780,788,763,770,-3.40,-0.04,10.00,0.01,0.03,-0.04
2024-12-25 18:39:21,773,779,791,765,771,-3.34,0.11,9.79,-0.09,0.05,-0.05
2024-12-25 18:39:21,772,782,790,763,771,-3.30,-0.09,9.88,-0.10,-0.07,-0.05
2024-12-25 18:39:21,766,777,786,762,771,-2.95,0.16,10.12,0.16,-0.03,0.03
2024-12-25 18:39:21,769,776,783,762,770,-3.24,0.21,9.97,-0.03,-0.02,0.09
2024-12-25 18:39:21,767,774,782,762,769,-2.84,0.76,10.20,0.02,-0.09,-0.04
2024-12-25 18:39:21,767,774,779,759,769,-2.98,0.52,9.92,0.06,-0.02,0.01
2024-12-25 18:39:21,768,775,783,759,768,-3.05,0.49,10.00,0.05,0.10,0.03
2024-12-25 18:39:21,768,776,783,759,768,-2.77,0.67,10.28,0.07,0.13,0.00
2024-12-25 18:39:21,767,774,782,760,767,-2.89,1.97,9.47,-0.15,-0.11,0.13
2024-12-25 18:39:21,771,777,783,759,769,-3.45,0.03,10.20,-0.17,-0.17,0.06
2024-12-25 18:39:21,774,777,784,761,770,-2.72,0.61,10.23,-0.12,0.01,-0.01
2024-12-25 18:39:21,775,777,785,762,769,-2.77,0.43,10.05,-0.02,0.04,-0.04
2024-12-25 18:39:21,775,778,787,763,769,-2.75,0.49,10.14,-0.09,0.07,-0.09
2024-12-25 18:39:21,777,779,788,765,771,-2.42,0.21,9.06,-0.16,0.16,-0.09
2024-12-25 18:39:21,777,780,789,764,770,-2.25,0.96,10.37,-0.20,-0.20,-0.14
2024-12-25 18:39:21,779,781,790,765,771,-2.47,-0.16,10.09,-0.01,-0.06,0.01
2024-12-25 18:39:21,777,780,789,763,769,-2.04,0.25,10.56,-0.07,0.02,0.14
2024-12-25 18:39:21,780,780,789,765,771,-1.98,0.44,10.23,-0.15,0.04,0.02
2024-12-25 18:39:21,779,782,790,764,770,-2.27,-0.16,10.41,-0.11,0.07,-0.03
2024-12-25 18:39:21,777,783,791,764,770,-1.88,0.15,10.34,-0.01,0.10,-0.08
2024-12-25 18:39:21,785,782,790,764,770,-1.88,0.08,10.36,-0.02,0.03,0.05
2024-12-25 18:39:21,782,781,792,765,770,-2.24,0.28,10.43,-0.03,0.01,-0.01
2024-12-25 18:39:21,781,780,792,765,770,-1.93,0.07,10.57,0.01,0.08,0.03
2024-12-25 18:39:21,780,782,789,764,770,-2.10,0.13,10.23,0.02,0.18,-0.03
2024-12-25 18:39:21,784,783,793,764,771,-1.71,0.03,10.49,0.07,0.10,0.05
2024-12-25 18:39:21,782,783,795,767,771,-2.34,0.47,10.17,-0.07,0.04,0.06
2024-12-25 18:39:21,780,784,795,763,770,-2.30,0.20,10.07,-0.01,-0.09,-0.00
2024-12-25 18:39:21,781,784,794,764,770,-1.63,0.03,10.69,-0.34,-0.15,0.00
2024-12-25 18:39:21,782,785,795,765,771,-1.75,0.38,10.45,-0.06,0.06,0.11
2024-12-25 18:39:21,783,784,794,765,771,-2.03,0.08,10.13,0.03,0.11,0.12
2024-12-25 18:39:21,782,786,797,766,772,-2.26,0.06,10.21,-0.22,0.04,-0.10
2024-12-25 18:39:21,783,787,798,767,772,-1.66,-0.05,10.37,0.03,0.09,-0.28
2024-12-25 18:39:21,783,785,796,766,771,-2.37,0.32,10.66,0.01,0.00,-0.10
2024-12-25 18:39:21,783,787,797,765,771,-2.16,-0.20,10.07,-0.07,0.00,0.00
2024-12-25 18:39:21,784,787,800,766,771,-2.38,0.22,10.55,0.01,0.04,-0.05
2024-12-25 18:39:21,783,786,798,767,772,-2.28,0.08,10.27,-0.09,0.12,-0.00
2024-12-25 18:39:21,786,786,798,765,771,-2.16,0.02,10.29,-0.04,-0.01,-0.04
2024-12-25 18:39:21,785,787,798,766,771,-2.25,0.32,10.24,-0.21,-0.11,0.06
2024-12-25 18:39:21,785,787,800,767,770,-2.74,-0.44,9.93,-0.04,0.11,-0.07
2024-12-25 18:39:21,785,788,799,767,772,-2.70,-0.18,10.43,0.01,0.02,0.07
2024-12-25 18:39:21,786,788,798,767,770,-2.73,-0.11,10.90,-0.02,0.06,-0.05
2024-12-25 18:39:21,783,786,796,768,771,-3.44,-0.50,9.87,0.01,0.26,-0.03
2024-12-25 18:39:21,783,780,791,763,773,-2.95,-0.28,9.68,0.57,0.18,0.20
2024-12-25 18:39:21,778,776,784,761,771,-3.29,0.81,10.35,0.10,0.21,0.32
2024-12-25 18:39:21,779,777,786,762,770,-3.96,1.12,10.49,-0.79,0.09,-0.21
2024-12-25 18:39:21,782,780,789,763,770,-3.24,-0.45,9.48,-0.34,0.18,-0.23
2024-12-25 18:39:21,781,781,791,765,770,-3.15,-1.27,9.82,-0.44,0.06,-0.23
2024-12-25 18:39:22,782,785,796,766,772,-2.72,-2.32,9.64,-0.62,-0.09,-0.11
2024-12-25 18:39:22,784,786,798,770,771,-3.72,-2.54,9.56,0.23,0.08,0.07
2024-12-25 18:39:22,783,783,793,768,771,-3.32,-1.29,9.88,0.75,-0.05,0.16
2024-12-25 18:39:22,778,778,788,765,769,-2.90,0.08,10.05,0.57,-0.26,0.15
2024-12-25 18:39:22,780,775,783,764,770,-3.21,0.36,9.99,0.30,-0.06,0.06
2024-12-25 18:39:22,776,775,784,764,769,-2.69,1.41,10.42,-0.18,0.06,-0.07
2024-12-25 18:39:22,775,774,783,761,769,-3.06,0.80,9.85,-0.12,0.06,-0.04
2024-12-25 18:39:22,775,775,784,761,769,-2.94,0.89,9.98,-0.04,0.01,-0.04
2024-12-25 18:39:22,775,775,786,761,768,-2.98,0.76,9.99,-0.06,0.00,-0.03
2024-12-25 18:39:22,776,776,784,762,769,-3.03,0.76,9.96,-0.04,0.04,-0.05
2024-12-25 18:39:22,776,775,786,760,769,-2.93,0.64,10.03,-0.05,0.03,-0.04
2024-12-25 18:39:22,777,775,785,762,769,-2.89,0.72,9.88,-0.06,0.00,-0.04
2024-12-25 18:39:22,777,776,785,763,769,-3.06,0.63,9.96,-0.04,-0.01,-0.03
2024-12-25 18:39:22,774,778,785,761,770,-2.82,0.62,9.83,-0.09,0.00,-0.04
2024-12-25 18:39:22,777,775,784,762,770,-3.07,0.52,9.96,-0.05,0.01,-0.02
2024-12-25 18:39:22,778,777,785,763,769,-3.04,0.63,9.92,-0.04,-0.02,-0.00
2024-12-25 18:39:22,778,776,785,761,768,-3.06,0.72,10.07,-0.16,0.02,-0.04
2024-12-25 18:39:22,779,779,788,762,769,-3.16,0.32,10.09,-0.42,0.15,-0.13
2024-12-25 18:39:22,783,790,804,770,770,-4.09,-1.67,10.47,-2.10,0.23,-0.44
2024-12-25 18:39:22,783,856,903,828,805,-4.11,-5.88,7.90,-2.54,0.33,0.26
2024-12-25 18:39:22,845,901,934,874,852,-3.88,-6.78,6.48,-0.43,-0.42,0.49
2024-12-25 18:39:22,798,893,929,873,858,-4.29,-6.71,6.15,-0.53,-0.27,0.75
2024-12-25 18:39:22,792,913,944,887,879,-4.14,-7.28,5.97,-0.49,0.04,0.03
2024-12-25 18:39:22,794,911,946,887,876,-4.46,-6.18,2.82,-2.67,0.36,-0.12
2024-12-25 18:39:22,792,908,940,880,868,-3.31,-11.27,-3.54,3.01,0.17,-1.14
2024-12-25 18:39:22,788,907,943,882,870,-0.24,1.03,12.61,1.48,-0.43,1.26
2024-12-25 18:39:22,792,903,943,880,867,-4.23,-7.30,6.71,-8.73,1.13,-1.15
2024-12-25 18:39:22,793,901,941,878,864,-2.33,-12.55,-0.44,3.59,0.72,0.18
2024-12-25 18:39:22,790,907,945,879,865,1.00,-1.31,11.27,2.90,-1.04,0.83
2024-12-25 18:39:23,791,901,938,877,862,-4.26,-7.59,3.75,-8.53,0.47,-0.62
2024-12-25 18:39:23,796,901,937,876,858,-3.29,-10.99,-1.69,3.16,0.28,-0.36
2024-12-25 18:39:23,790,903,939,875,861,1.36,-4.05,9.26,4.29,-1.95,0.36
2024-12-25 18:39:23,789,903,938,876,861,-2.72,-1.94,11.87,-3.43,1.39,-0.81
2024-12-25 18:39:23,796,899,939,875,860,-2.06,-11.27,-0.27,-3.06,0.33,-0.02
2024-12-25 18:39:24,794,900,939,874,859,-3.34,-10.55,1.56,5.32,-0.27,-0.23
2024-12-25 18:39:24,788,901,937,872,858,0.38,-2.69,11.13,1.62,-1.39,0.58
2024-12-25 18:39:24,791,898,937,876,861,-3.54,-6.16,9.05,-4.99,1.29,-0.40
2024-12-25 18:39:24,792,895,933,872,859,-2.92,-9.02,-1.23,-1.34,0.19,0.08
2024-12-25 18:39:24,793,894,936,873,859,-2.95,-8.77,2.27,2.82,-0.48,-0.25
2024-12-25 18:39:24,788,895,935,872,858,-5.45,-2.96,7.02,3.49,-0.32,0.98
2024-12-25 18:39:25,788,894,934,873,859,-1.85,0.25,12.00,-2.10,0.49,-0.17
2024-12-25 18:39:25,796,892,934,871,858,-2.55,-11.33,-1.74,-3.18,0.70,0.33
2024-12-25 18:39:25,794,890,931,869,855,-3.86,-9.17,-1.29,0.47,0.11,-0.17
2024-12-25 18:39:25,793,896,933,871,857,-4.92,-5.18,3.18,4.09,-0.29,0.28
2024-12-25 18:39:25,790,896,938,871,858,-0.84,-4.56,8.84,3.35,-0.15,0.41
2024-12-25 18:39:26,789,895,934,870,855,-0.90,-0.78,11.94,-1.21,-0.09,0.11
2024-12-25 18:39:26,791,895,936,869,857,-3.23,-6.68,3.70,-4.87,1.84,0.12
2024-12-25 18:39:26,795,893,933,867,854,-2.65,-8.75,-1.01,-1.08,-0.16,-0.11
2024-12-25 18:39:26,794,896,933,868,855,-3.75,-7.91,1.09,4.54,-0.82,0.10
2024-12-25 18:39:26,791,898,935,871,857,-1.22,-4.49,9.18,2.64,-0.29,1.04
2024-12-25 18:39:27,790,896,936,870,856,-2.37,-1.14,11.88,-1.10,-0.08,-0.19
2024-12-25 18:39:27,792,893,933,868,854,-3.47,-6.80,4.32,-6.62,1.17,-0.44
2024-12-25 18:39:27,795,890,931,867,853,-2.92,-8.41,-2.03,-0.63,0.01,-0.11
2024-12-25 18:39:27,794,895,934,868,856,-3.61,-9.44,0.35,4.01,-1.49,0.39
2024-12-25 18:39:27,792,895,933,869,857,-2.27,-4.31,8.32,3.59,0.03,0.72
2024-12-25 18:39:27,788,895,932,868,855,-2.56,-1.73,11.36,-0.89,0.02,-0.28
2024-12-25 18:39:28,790,890,930,867,852,-3.04,-8.48,4.03,-5.16,0.38,-0.39
2024-12-25 18:39:28,794,889,927,866,853,-3.61,-8.51,-1.68,-0.80,-0.08,0.06
2024-12-25 18:39:28,793,890,934,869,853,-3.90,-11.05,-0.45,4.03,-0.02,-0.48
2024-12-25 18:39:28,791,892,931,865,852,-1.91,-5.32,7.34,3.85,0.90,0.02
2024-12-25 18:39:28,788,893,934,865,852,-1.66,-1.34,11.75,0.48,-0.72,0.24
2024-12-25 18:39:29,791,893,931,866,851,-3.18,-7.98,5.83,-7.01,1.24,-0.16
2024-12-25 18:39:29,793,890,933,864,851,-3.43,-8.48,-1.23,-0.86,0.02,0.22
2024-12-25 18:39:29,792,888,931,865,851,-3.74,-7.83,2.18,5.86,-0.38,-0.55
2024-12-25 18:39:29,789,892,931,866,850,-3.14,-3.60,9.39,3.23,-0.61,0.42
2024-12-25 18:39:29,788,892,934,866,852,-2.47,-2.33,11.16,-3.68,1.35,-0.58
2024-12-25 18:39:30,795,890,932,868,855,-3.13,-10.91,-0.05,-3.59,-0.17,0.29
2024-12-25 18:39:30,793,890,930,869,854,-2.34,-9.89,0.90,0.96,-0.15,-0.27
2024-12-25 18:39:30,791,891,930,869,850,-1.31,-0.03,8.34,5.71,-2.09,1.35
2024-12-25 18:39:30,793,893,935,870,852,-2.26,1.62,11.67,-0.57,0.13,-0.12
2024-12-25 18:39:30,790,887,928,866,850,-3.27,-5.86,5.56,-6.71,1.20,-0.63
2024-12-25 18:39:30,790,885,927,862,847,-3.09,-8.87,0.47,-0.53,-0.18,-0.08
2024-12-25 18:39:31,795,892,931,864,851,-4.12,-7.02,3.58,5.91,-1.96,0.34
2024-12-25 18:39:31,789,892,928,861,846,-2.80,-0.92,10.54,1.48,0.31,0.27
2024-12-25 18:39:31,792,890,925,861,846,-3.53,-4.52,7.94,-6.53,1.50,-0.65
2024-12-25 18:39:31,790,885,928,861,848,-3.44,-8.88,-0.81,-1.31,-0.06,-0.16
2024-12-25 18:39:31,794,882,923,859,845,-3.06,-9.69,-0.03,0.75,-0.37,-0.41
2024-12-25 18:39:32,790,889,926,860,847,-4.52,-5.76,4.26,5.88,0.27,-0.62
2024-12-25 18:39:32,786,886,927,858,846,-1.41,-1.96,10.86,0.90,0.18,0.09
2024-12-25 18:39:32,787,891,931,863,848,-2.44,-3.85,8.59,-4.53,-0.29,-0.03
2024-12-25 18:39:32,792,886,928,863,846,-2.56,-9.22,-0.96,-3.43,0.43,0.97
2024-12-25 18:39:32,791,884,924,862,846,-4.43,-8.57,-2.31,1.78,0.20,-0.43
2024-12-25 18:39:33,789,885,929,865,850,-1.86,-8.54,3.88,5.86,1.34,-0.43
2024-12-25 18:39:33,784,880,923,865,848,-1.67,-3.56,10.38,0.06,0.15,0.08
2024-12-25 18:39:33,788,886,927,869,855,-2.86,-6.19,7.09,-6.19,0.49,0.14
2024-12-25 18:39:33,793,885,930,873,856,-2.91,-8.72,-2.29,-1.17,-0.12,0.06
2024-12-25 18:39:33,792,886,932,873,856,-3.12,-10.32,-1.01,3.11,0.11,-0.46
2024-12-25 18:39:33,788,885,931,875,855,-1.03,-4.16,9.64,2.93,-0.30,-0.09
2024-12-25 18:39:34,788,883,927,872,854,-1.90,-3.78,10.92,-3.44,0.24,0.18
2024-12-25 18:39:34,790,877,925,866,850,-2.19,-10.59,0.74,-4.66,-1.09,0.26
2024-12-25 18:39:34,792,876,925,867,850,-3.19,-8.86,-3.78,0.20,0.16,-0.11
2024-12-25 18:39:34,791,882,925,865,849,-2.59,-5.79,4.81,4.21,0.26,-0.63
2024-12-25 18:39:34,786,884,927,865,848,-2.95,-3.64,8.96,4.16,-0.57,0.67
2024-12-25 18:39:35,784,879,924,862,846,-1.90,-1.98,11.20,-3.74,0.50,-0.13
2024-12-25 18:39:35,790,866,916,855,841,-3.31,-9.57,0.12,-4.85,-1.06,0.55
2024-12-25 18:39:35,793,870,918,858,846,-4.31,-8.19,-2.85,0.56,-0.37,-0.33
2024-12-25 18:39:35,791,882,926,865,851,-4.65,-7.16,2.81,5.92,1.85,-0.83
2024-12-25 18:39:35,788,881,924,862,850,-1.25,-2.77,9.87,3.26,-0.50,0.69
2024-12-25 18:39:36,784,874,920,860,844,-2.55,-0.56,11.78,-3.47,-0.28,-0.07
2024-12-25 18:39:36,791,870,919,858,844,-1.87,-10.24,1.88,-5.61,-0.90,0.30
2024-12-25 18:39:36,792,866,918,865,846,-2.69,-8.98,-2.80,-0.56,0.21,0.11
2024-12-25 18:39:36,794,885,928,871,855,-2.53,-9.13,0.53,4.31,-0.08,-0.32
2024-12-25 18:39:36,788,890,930,873,857,-2.38,-5.94,7.85,3.03,-1.10,0.32
2024-12-25 18:39:37,787,889,930,873,855,-2.20,-0.80,11.85,0.08,0.07,0.00
2024-12-25 18:39:37,789,883,926,868,851,-2.68,-9.69,3.08,-7.48,0.12,-0.10
2024-12-25 18:39:37,792,879,927,868,847,-3.34,-8.78,-1.86,-0.03,0.01,-0.17
2024-12-25 18:39:37,790,881,927,868,848,-2.71,-9.57,2.78,6.21,0.54,-0.55
2024-12-25 18:39:37,784,877,923,864,843,0.24,-1.43,11.02,1.81,-0.43,0.25
2024-12-25 18:39:37,784,872,923,863,844,-2.30,-3.94,8.94,-7.48,1.17,-0.30
2024-12-25 18:39:38,792,878,924,865,846,-4.00,-7.92,-3.62,-1.52,-0.47,0.06
2024-12-25 18:39:38,791,875,921,864,844,-3.82,-8.65,-2.29,1.62,0.40,-1.05
2024-12-25 18:39:38,790,877,923,863,844,-1.87,-8.07,4.92,4.27,1.14,-0.26
2024-12-25 18:39:38,789,879,926,867,848,-2.99,-4.09,10.18,0.31,0.04,0.28
2024-12-25 18:39:38,789,883,928,867,850,-2.12,-8.33,5.48,-6.31,-0.71,-0.56
2024-12-25 18:39:39,793,881,924,866,848,-1.73,-8.88,-2.74,-1.07,-0.08,-0.15
2024-12-25 18:39:39,791,885,929,866,850,-1.31,-10.74,-0.24,3.33,0.34,0.01
2024-12-25 18:39:39,790,886,928,867,850,-2.29,-4.93,7.03,3.89,0.39,0.50
2024-12-25 18:39:39,790,886,930,866,851,-3.09,-4.17,9.49,-3.30,-0.19,-0.58
2024-12-25 18:39:39,793,883,926,867,849,-0.00,-11.76,-1.38,-4.25,-0.45,0.06
2024-12-25 18:39:40,792,883,929,867,847,-1.63,-10.81,-2.82,1.99,0.26,-0.15
2024-12-25 18:39:40,788,883,925,867,847,-2.33,-5.76,5.66,3.94,0.48,0.38
2024-12-25 18:39:40,788,888,929,864,849,-2.43,-2.82,9.40,2.68,-0.12,0.43
2024-12-25 18:39:40,789,883,929,869,851,-1.87,-3.89,9.46,-4.75,-0.48,-0.45
2024-12-25 18:39:40,790,880,925,865,848,-0.67,-10.19,-1.41,-3.26,0.09,0.19
2024-12-25 18:39:40,791,877,926,863,845,-1.39,-10.98,-1.90,3.19,0.26,0.23
2024-12-25 18:39:41,788,877,926,865,845,-1.71,-4.74,7.05,4.34,-0.16,0.46
2024-12-25 18:39:41,789,884,927,866,848,-2.39,-3.55,10.22,-3.71,-0.35,-0.71
2024-12-25 18:39:41,791,882,927,865,847,-0.37,-11.34,-0.23,-4.14,-0.29,0.23
2024-12-25 18:39:41,792,883,927,862,848,-2.69,-10.66,-2.06,3.86,0.65,-0.21
2024-12-25 18:39:41,789,884,925,863,845,-0.65,-5.73,8.13,2.65,-0.27,-0.01
2024-12-25 18:39:42,789,882,927,863,846,-1.99,-5.67,8.23,-4.46,-0.45,0.16
2024-12-25 18:39:42,794,882,925,864,845,-1.73,-10.31,-0.87,-2.56,-0.16,0.40
2024-12-25 18:39:42,792,880,924,864,845,-2.72,-9.99,-2.26,2.81,0.57,-0.12
2024-12-25 18:39:42,789,881,925,863,844,-1.87,-7.50,5.52,4.85,0.81,0.18
2024-12-25 18:39:42,789,881,927,862,845,-2.01,-1.59,11.03,0.35,0.19,0.13
2024-12-25 18:39:43,787,873,919,859,841,-1.98,-6.73,6.91,-6.07,-0.18,-0.31
2024-12-25 18:39:43,788,871,918,858,838,-2.06,-9.75,-2.36,-1.28,-0.01,0.33
2024-12-25 18:39:43,790,874,922,859,838,-2.62,-10.26,1.06,4.97,0.60,-0.28
2024-12-25 18:39:43,787,873,919,857,838,-0.77,-5.20,8.63,3.23,0.07,0.16
2024-12-25 18:39:43,784,877,925,860,840,-1.55,-2.36,10.80,-2.98,0.08,-0.21
2024-12-25 18:39:43,788,871,919,857,838,-0.95,-11.00,1.31,-5.11,-0.83,0.04
2024-12-25 18:39:44,791,872,922,858,840,-1.60,-10.60,-0.64,1.31,0.25,-0.15
2024-12-25 18:39:44,789,877,924,857,840,-2.26,-5.57,6.27,5.17,0.17,0.21
2024-12-25 18:39:44,785,878,922,858,840,-1.91,-0.41,11.07,0.73,0.34,0.20
2024-12-25 18:39:44,786,869,918,855,838,-1.95,-5.83,7.00,-6.82,0.22,-0.33
2024-12-25 18:39:44,793,869,922,855,837,-1.49,-9.48,-2.43,-1.34,-0.22,0.25
2024-12-25 18:39:45,790,873,918,856,839,-1.73,-9.75,1.41,4.72,0.65,-0.10
2024-12-25 18:39:45,787,869,920,855,837,-1.87,-4.36,8.91,3.01,-0.01,0.34
2024-12-25 18:39:45,786,871,920,856,837,-2.58,-2.88,10.50,-3.08,-0.08,-0.33
2024-12-25 18:39:45,790,862,915,853,836,-0.12,-12.45,-0.02,-4.87,-0.93,0.16
2024-12-25 18:39:45,790,870,916,854,834,-1.73,-10.14,-2.87,1.87,0.39,0.03
2024-12-25 18:39:46,789,870,919,853,836,-2.30,-7.61,5.20,4.89,0.58,0.51
2024-12-25 18:39:46,786,869,917,853,835,-2.68,-0.17,11.44,0.50,-0.13,0.20
2024-12-25 18:39:46,789,878,927,864,848,-1.96,-5.53,8.19,-5.42,-0.09,-0.84
2024-12-25 18:39:46,790,875,924,860,842,-1.58,-10.49,-4.57,-2.48,-0.21,0.62
2024-12-25 18:39:46,788,878,924,862,842,-1.94,-10.48,-1.96,2.89,0.54,-0.08
2024-12-25 18:39:46,784,874,923,860,840,-2.45,-5.31,6.26,6.48,0.19,0.21
2024-12-25 18:39:47,786,877,922,858,839,-2.62,-1.81,11.32,-0.77,-0.15,-0.03
2024-12-25 18:39:47,787,865,915,851,833,-1.32,-9.43,4.07,-4.81,-0.29,-0.31
2024-12-25 18:39:47,786,855,909,847,826,-1.32,-10.40,-0.24,-0.87,-0.06,0.13
2024-12-25 18:39:47,786,867,914,851,832,-2.18,-6.54,4.55,5.40,0.25,0.04
2024-12-25 18:39:47,785,871,917,853,836,-1.28,-3.29,9.72,2.73,0.60,0.20
2024-12-25 18:39:48,785,870,918,853,833,-1.68,-0.03,10.55,1.92,0.06,0.57
2024-12-25 18:39:48,785,862,913,850,831,-1.99,-1.60,9.61,-5.15,0.18,-0.90
2024-12-25 18:39:48,786,860,910,848,829,-0.74,-11.66,0.78,-2.94,-0.48,-0.15
2024-12-25 18:39:48,791,879,922,858,838,-1.98,-10.88,0.78,3.76,0.30,-0.12
2024-12-25 18:39:48,786,878,921,857,839,0.04,-3.98,8.99,3.96,-0.00,0.17
2024-12-25 18:39:49,785,876,922,856,839,-1.50,-1.17,11.26,-0.56,-0.06,-0.00
2024-12-25 18:39:49,786,864,916,850,833,-1.48,-7.97,6.15,-6.74,-0.01,0.18
2024-12-25 18:39:49,788,860,908,849,828,-2.29,-9.87,-2.05,0.61,-0.26,0.02
2024-12-25 18:39:49,787,865,913,849,831,-2.56,-5.79,5.56,6.35,0.23,-0.05
2024-12-25 18:39:49,787,873,919,853,836,-1.80,-0.91,11.89,-0.62,0.19,-0.01
2024-12-25 18:39:49,787,866,916,851,833,-1.16,-8.04,5.56,-6.40,-0.01,-0.31
2024-12-25 18:39:50,790,864,914,851,830,-1.56,-10.00,-1.75,0.74,0.19,0.08
2024-12-25 18:39:50,789,870,919,852,831,-2.21,-7.54,4.24,5.15,0.39,-0.19
2024-12-25 18:39:50,789,882,927,857,843,-1.04,-1.54,11.17,1.58,-0.21,0.27
2024-12-25 18:39:50,788,868,916,855,835,-2.03,-2.68,10.53,-4.61,-0.03,-0.48
2024-12-25 18:39:50,788,855,908,846,826,-0.62,-10.38,0.32,-4.34,-0.63,0.27
2024-12-25 18:39:51,792,865,910,846,829,-2.12,-10.78,-1.40,3.62,0.75,-0.04
2024-12-25 18:39:51,791,873,919,855,838,-2.25,-4.17,7.28,4.29,0.23,0.46
2024-12-25 18:39:51,791,882,922,857,843,-2.76,0.06,11.55,1.50,-0.10,0.56
2024-12-25 18:39:51,791,872,919,857,842,-1.57,-4.26,8.16,-7.84,-0.01,-0.62
2024-12-25 18:39:51,794,871,917,853,840,-2.70,-7.74,-2.87,-1.27,-0.25,0.20
2024-12-25 18:39:52,796,881,925,858,847,-2.49,-10.66,-2.56,2.92,0.51,-0.26
2024-12-25 18:39:52,787,872,917,854,839,-2.11,-5.18,6.69,5.72,0.24,-0.05
2024-12-25 18:39:52,788,866,915,848,833,-1.85,1.36,12.76,-0.88,0.06,-0.21
2024-12-25 18:39:52,791,866,915,851,835,-1.13,-8.76,5.13,-6.91,-0.39,-0.36
2024-12-25 18:39:52,790,860,909,847,828,-2.18,-9.55,-1.45,-0.12,-0.18,-0.04
2024-12-25 18:39:52,789,866,916,853,832,-1.21,-9.59,3.15,5.24,0.51,-0.52
2024-12-25 18:39:53,789,880,922,852,837,-0.59,-3.25,9.95,2.90,-0.30,-0.08
2024-12-25 18:39:53,794,884,928,863,844,-1.39,0.09,11.81,-0.06,0.07,0.05
2024-12-25 18:39:53,791,865,917,854,836,-1.54,-5.74,7.70,-7.36,0.13,0.29
2024-12-25 18:39:53,796,865,915,854,835,-1.60,-9.22,-0.82,-1.43,-0.36,0.18
2024-12-25 18:39:53,794,871,920,853,838,-2.34,-10.47,1.89,6.26,1.16,-0.47
2024-12-25 18:39:54,792,873,922,856,835,-0.65,-3.21,9.79,3.54,0.12,0.10
2024-12-25 18:39:54,790,880,927,861,842,-1.71,1.37,11.54,-0.37,0.21,0.06
2024-12-25 18:39:54,791,874,922,855,835,-1.72,-5.78,8.43,-6.80,-0.05,-0.09
2024-12-25 18:39:54,793,868,920,852,834,-1.27,-10.35,-0.98,-1.35,-0.31,0.16
2024-12-25 18:39:54,793,871,918,851,833,-2.05,-10.36,1.77,4.57,0.71,-0.30
2024-12-25 18:39:55,789,870,916,852,830,-0.06,-3.59,9.96,3.23,0.19,-0.07
2024-12-25 18:39:55,791,870,919,852,832,-0.91,0.56,11.68,0.92,0.11,0.06
2024-12-25 18:39:55,791,867,914,852,831,-1.36,-2.36,9.46,-6.31,-0.16,-0.39
2024-12-25 18:39:55,790,867,914,850,833,-0.75,-10.84,-0.85,-3.47,-0.17,0.78
2024-12-25 18:39:55,791,864,912,848,829,-1.76,-10.35,-1.64,1.85,0.32,-0.36
2024-12-25 18:39:55,789,867,915,850,830,-1.50,-5.34,6.04,5.16,0.37,0.05
2024-12-25 18:39:56,788,874,918,851,832,-0.48,0.90,10.70,3.53,0.24,0.17
2024-12-25 18:39:56,790,877,922,855,835,-0.53,0.29,11.33,-4.52,-0.28,-0.12
2024-12-25 18:39:56,789,864,917,850,833,-0.30,-9.31,3.38,-4.63,-0.10,0.27
2024-12-25 18:39:56,787,861,909,845,823,-2.07,-9.30,-2.09,-0.62,0.14,0.23
2024-12-25 18:39:56,790,870,916,852,833,-1.85,-9.66,1.48,4.79,-0.18,-0.15
2024-12-25 18:39:57,788,872,913,851,836,-1.38,-3.85,8.33,3.79,0.12,0.32
2024-12-25 18:39:57,788,879,924,856,840,-1.00,1.28,11.83,1.41,0.12,0.44
2024-12-25 18:39:57,790,865,915,852,833,-1.66,-4.96,6.99,-8.22,0.26,-0.48
2024-12-25 18:39:57,788,860,909,847,828,-1.75,-9.15,-0.72,-0.88,-0.13,0.23
2024-12-25 18:39:57,794,870,915,850,834,-2.77,-9.57,1.59,4.41,0.36,-0.22
2024-12-25 18:39:58,795,879,923,854,839,-1.16,-2.66,8.79,5.17,0.84,0.59
2024-12-25 18:39:58,797,882,924,856,842,-1.47,2.50,11.63,-0.09,0.08,0.01
2024-12-25 18:39:58,791,870,917,851,838,-1.12,-4.91,8.14,-6.98,-0.26,-0.31
2024-12-25 18:39:58,791,872,917,850,836,-1.12,-9.99,-0.95,-2.33,-0.09,0.76
2024-12-25 18:39:58,793,873,919,855,835,-1.28,-10.66,-0.01,2.18,0.22,-0.35
2024-12-25 18:39:58,792,873,919,852,835,-0.70,-4.76,8.23,3.44,0.11,-0.07
2024-12-25 18:39:59,791,882,923,855,836,-0.79,0.17,11.25,1.87,-0.02,0.28
2024-12-25 18:39:59,789,868,917,851,833,-1.24,0.79,11.10,-4.17,-0.43,-0.30
2024-12-25 18:39:59,789,864,914,851,831,0.09,-9.61,3.68,-5.88,-0.94,0.25
2024-12-25 18:39:59,788,862,913,849,831,-1.65,-9.79,-2.45,0.66,-0.00,0.04
2024-12-25 18:39:59,787,866,915,848,831,-1.90,-6.80,4.53,6.83,0.88,-0.34
2024-12-25 18:40:00,789,870,918,851,834,-0.90,-1.07,10.45,2.94,0.30,0.13
2024-12-25 18:40:00,788,866,917,850,832,-1.20,-0.69,11.37,-2.65,-0.31,-0.06
2024-12-25 18:40:00,787,857,909,846,828,-0.98,-8.96,3.82,-5.11,-0.52,-0.03
2024-12-25 18:40:00,789,862,912,848,829,-1.24,-9.89,-0.68,-0.50,-0.23,0.08
2024-12-25 18:40:00,790,876,917,853,836,-1.26,-9.93,1.95,2.75,0.42,-0.28
2024-12-25 18:40:01,795,881,922,856,841,-0.06,-8.38,7.10,2.17,0.27,-0.16
2024-12-25 18:40:01,794,884,925,859,843,-0.02,-4.57,9.47,2.49,-0.18,0.04
2024-12-25 18:40:01,796,889,928,862,844,-1.15,-0.23,11.14,0.49,-0.11,0.23
2024-12-25 18:40:01,794,884,924,862,842,-1.24,-3.09,8.49,-7.48,0.34,-0.63
2024-12-25 18:40:01,798,882,922,858,842,-0.53,-9.84,-0.95,-2.08,-0.63,0.22
2024-12-25 18:40:01,797,877,926,858,842,-1.50,-9.95,-0.61,1.50,0.13,-0.16
2024-12-25 18:40:02,796,879,925,859,843,-1.44,-8.80,4.58,3.38,0.74,-0.31
2024-12-25 18:40:02,794,886,929,864,847,-0.46,-7.72,7.97,1.82,-0.22,-0.24
2024-12-25 18:40:02,789,885,927,862,845,-0.06,-4.22,9.38,2.38,0.10,-0.03
2024-12-25 18:40:02,789,885,926,863,844,-0.79,0.60,11.36,0.62,0.26,0.06
2024-12-25 18:40:02,791,882,925,859,843,-0.67,-1.08,10.75,-2.48,0.23,0.04
2024-12-25 18:40:03,792,876,922,859,841,-1.03,-7.13,7.01,-4.56,0.46,-0.12
2024-12-25 18:40:03,795,875,922,857,841,-1.07,-10.26,-0.27,-2.40,-0.29,0.33
2024-12-25 18:40:03,795,874,923,857,843,-1.51,-10.70,-1.18,0.88,0.16,-0.16
2024-12-25 18:40:03,792,876,922,855,841,-0.61,-9.42,4.45,2.49,0.20,-0.31
2024-12-25 18:40:03,791,874,921,857,839,-1.12,-5.55,7.82,2.67,-0.37,-0.02
2024-12-25 18:40:04,792,878,923,857,842,-0.49,-3.13,10.24,1.41,-0.11,0.07
2024-12-25 18:40:04,791,878,919,855,841,-1.06,-0.42,10.94,0.74,0.12,0.07
2024-12-25 18:40:04,792,868,918,854,837,-1.02,-2.26,10.25,-3.92,0.17,-0.38
2024-12-25 18:40:04,791,861,912,849,830,-0.74,-9.24,3.68,-4.01,-0.13,0.06
2024-12-25 18:40:04,792,861,911,846,829,-1.09,-10.01,0.17,0.46,-0.02,-0.02
2024-12-25 18:40:04,793,867,915,849,832,-0.98,-9.07,4.46,2.38,0.30,-0.22
2024-12-25 18:40:05,793,875,918,853,835,-0.09,-7.63,7.80,1.88,-0.11,-0.13
2024-12-25 18:40:05,792,874,917,851,834,-0.24,-3.93,10.07,1.32,-0.32,0.15
2024-12-25 18:40:05,792,871,921,853,836,-0.58,-1.21,10.38,1.73,0.06,0.16
2024-12-25 18:40:05,791,871,920,854,834,-0.77,0.27,11.54,-1.60,0.05,-0.16
2024-12-25 18:40:05,790,865,917,850,833,-0.63,-5.22,8.79,-4.18,0.28,-0.16
2024-12-25 18:40:06,791,858,911,846,829,-0.46,-9.99,2.11,-3.14,0.07,0.14
2024-12-25 18:40:06,791,858,908,847,827,-1.40,-10.27,-1.15,0.58,0.03,0.10
2024-12-25 18:40:06,790,869,915,848,831,-0.40,-7.74,4.75,3.39,0.26,-0.27
2024-12-25 18:40:06,792,870,918,849,830,-0.79,-5.43,8.81,2.66,-0.20,0.09
2024-12-25 18:40:06,792,872,916,849,832,-0.50,-0.95,10.34,2.12,0.40,0.15
2024-12-25 18:40:07,788,865,914,848,829,-1.79,0.18,11.53,-2.48,-0.08,-0.23
2024-12-25 18:40:07,787,857,908,844,828,-1.85,-8.14,5.68,-5.74,-0.01,-0.06
2024-12-25 18:40:07,788,857,906,843,826,-1.77,-9.55,-0.36,-0.91,-0.22,0.14
2024-12-25 18:40:07,790,861,912,845,829,-1.20,-10.76,0.68,1.75,0.37,-0.24
2024-12-25 18:40:07,791,874,918,854,836,-0.95,-9.33,5.43,2.22,0.11,-0.24
2024-12-25 18:40:07,791,877,920,852,838,-0.34,-4.87,8.46,2.95,0.25,-0.03
2024-12-25 18:40:08,788,875,921,852,836,-1.54,-0.29,10.73,1.87,-0.01,0.26
2024-12-25 18:40:08,789,874,920,853,836,-1.66,-0.07,11.20,-2.18,-0.04,-0.19
2024-12-25 18:40:08,787,864,911,849,834,-1.28,-7.85,6.33,-5.18,-0.36,0.13
2024-12-25 18:40:08,793,862,912,847,829,-0.61,-10.24,1.43,-2.44,-0.09,0.43
2024-12-25 18:40:08,790,867,915,850,834,-2.59,-10.02,-0.29,2.11,0.19,-0.31
2024-12-25 18:40:09,792,874,924,853,837,-2.04,-7.61,4.89,4.32,1.19,-0.29
2024-12-25 18:40:09,791,878,922,854,838,0.36,-3.97,10.10,2.61,-0.19,0.01
2024-12-25 18:40:09,790,881,926,856,839,-0.45,0.66,11.80,0.09,0.17,0.03
2024-12-25 18:40:09,787,871,917,851,834,-0.54,-4.63,9.57,-3.65,0.45,0.44
2024-12-25 18:40:09,790,866,914,850,832,-1.52,-8.51,5.19,-3.23,-0.21,0.25
2024-12-25 18:40:10,794,864,914,850,832,-1.90,-10.30,0.30,-0.22,0.10,0.09
2024-12-25 18:40:10,791,865,916,850,833,-1.46,-8.24,4.57,3.45,-0.29,-0.22
2024-12-25 18:40:10,791,872,917,852,835,-0.90,-4.72,9.04,1.54,-0.44,-0.04
2024-12-25 18:40:10,793,875,924,857,837,-1.04,-1.70,10.53,2.18,0.06,0.43
2024-12-25 18:40:10,790,876,921,854,839,-0.47,-0.62,11.30,-2.19,0.19,-0.34
2024-12-25 18:40:10,792,870,916,856,836,0.52,-8.11,7.31,-5.48,-0.01,0.38
2024-12-25 18:40:11,794,870,918,854,836,-1.02,-9.81,0.40,-0.91,0.04,0.28
2024-12-25 18:40:11,792,871,918,854,836,-1.93,-8.39,3.17,4.95,0.54,-0.31
2024-12-25 18:40:11,791,872,920,852,837,-0.04,-4.99,9.05,3.04,0.58,-0.21
2024-12-25 18:40:11,794,878,922,855,834,-0.26,0.74,11.63,1.12,-0.01,0.22
2024-12-25 18:40:11,792,872,919,852,835,-0.70,-2.11,10.34,-3.81,0.11,-0.11
2024-12-25 18:40:12,790,863,915,849,832,-0.35,-8.32,5.59,-4.23,0.04,0.12
2024-12-25 18:40:12,791,857,910,845,827,-1.87,-10.48,0.60,1.01,0.35,0.06
2024-12-25 18:40:12,794,863,912,847,829,-1.70,-5.28,7.07,3.21,-0.12,-0.16
2024-12-25 18:40:12,796,872,918,852,832,-0.72,-3.79,10.08,1.65,-0.01,0.01
2024-12-25 18:40:12,799,881,929,858,844,-0.29,-2.30,10.67,0.87,0.09,0.02
2024-12-25 18:40:13,804,884,927,861,843,-0.28,0.42,11.10,0.95,0.13,0.01
2024-12-25 18:40:13,801,869,918,855,836,-0.48,-0.63,10.85,-3.26,0.57,-0.20
2024-12-25 18:40:13,792,852,907,844,829,-0.87,-8.28,6.30,-3.66,-0.05,0.29
2024-12-25 18:40:13,796,856,909,846,829,-2.33,-9.99,2.77,0.93,0.58,0.00
2024-12-25 18:40:13,795,868,917,853,834,0.60,-4.70,9.98,2.49,0.20,-0.43
2024-12-25 18:40:13,800,876,919,856,836,-0.36,-3.71,9.73,1.71,-0.63,0.17
2024-12-25 18:40:14,795,876,922,855,838,-0.11,-0.45,10.47,1.91,0.45,-0.16
2024-12-25 18:40:14,795,873,922,854,836,-0.56,2.11,11.54,-1.58,-0.09,0.07
2024-12-25 18:40:14,790,858,912,849,830,-0.82,-4.88,8.62,-5.29,1.74,-0.20
2024-12-25 18:40:14,791,855,909,847,830,-1.57,-8.71,3.95,-0.28,-0.25,0.06
2024-12-25 18:40:14,791,863,916,855,840,-2.06,-8.54,6.47,2.27,-0.27,-0.22
2024-12-25 18:40:15,789,869,918,852,837,-2.08,-1.56,9.43,3.59,-0.44,0.60
2024-12-25 18:40:15,788,871,919,852,835,-1.45,3.32,11.96,-0.55,0.48,-0.26
2024-12-25 18:40:15,788,871,920,853,841,-1.02,-2.62,10.13,-5.07,0.10,-0.19
2024-12-25 18:40:15,793,882,922,856,844,-0.53,-10.95,1.40,-2.68,-0.33,0.32
2024-12-25 18:40:15,790,887,925,858,845,-1.74,-8.78,2.65,2.56,0.23,-0.21
2024-12-25 18:40:16,788,886,926,857,843,-1.03,-4.66,7.99,4.22,0.03,-0.17
2024-12-25 18:40:16,788,891,927,860,845,0.60,-0.57,11.16,1.53,0.06,0.40
2024-12-25 18:40:16,792,887,927,859,846,-0.22,1.46,11.60,-1.44,-0.11,0.03
2024-12-25 18:40:16,788,873,918,851,836,-1.76,-7.69,6.25,-6.14,0.12,-0.00
2024-12-25 18:40:16,796,869,915,850,833,-1.55,-10.37,-2.29,-1.52,-0.08,0.22
2024-12-25 18:40:16,795,869,915,850,835,-1.79,-9.18,0.97,2.70,0.20,-0.39
2024-12-25 18:40:17,792,871,917,851,833,-2.03,-5.68,6.84,4.85,0.04,-0.07
2024-12-25 18:40:17,790,875,919,853,832,-0.56,-0.67,11.04,1.67,-0.01,0.18
2024-12-25 18:40:17,792,873,920,850,833,-0.91,1.96,11.64,-1.08,0.11,0.00
2024-12-25 18:40:17,790,861,912,848,832,-1.71,-3.78,9.03,-4.74,0.47,-0.13
2024-12-25 18:40:17,793,867,913,849,834,-1.75,-9.85,1.90,-2.38,-0.46,-0.01
2024-12-25 18:40:18,792,870,918,850,835,-2.26,-10.24,0.63,1.20,-0.13,-0.21
2024-12-25 18:40:18,792,872,920,852,835,-0.25,-5.62,8.15,4.10,0.01,-0.36
2024-12-25 18:40:18,793,879,918,853,834,-0.36,-2.51,10.69,1.96,-0.69,0.08
2024-12-25 18:40:18,789,879,924,854,837,-0.85,2.34,11.18,0.58,0.27,0.19
2024-12-25 18:40:18,792,876,923,853,839,-0.98,-0.23,10.90,-2.70,0.53,-0.18
2024-12-25 18:40:19,792,864,913,852,833,-1.91,-8.46,5.71,-6.06,0.39,-0.12
2024-12-25 18:40:19,791,861,910,848,829,-2.27,-9.68,-0.09,-0.44,-0.11,0.13
2024-12-25 18:40:19,791,869,916,848,831,-1.72,-7.79,3.70,4.65,0.46,-0.30
2024-12-25 18:40:19,793,873,917,852,834,-1.27,-4.69,8.94,3.17,0.06,-0.09
2024-12-25 18:40:19,789,870,919,850,835,-0.68,1.25,10.33,2.49,-0.09,0.42
2024-12-25 18:40:19,789,869,917,851,834,-1.80,3.47,11.36,-1.55,-0.21,0.00
2024-12-25 18:40:20,794,853,906,847,830,-2.60,-4.87,8.50,-5.67,0.87,-0.16
2024-12-25 18:40:20,795,853,904,843,827,-1.75,-9.27,1.06,-2.72,-0.27,0.19
2024-12-25 18:40:20,800,860,910,846,829,-2.31,-10.30,0.40,2.15,0.31,-0.50
2024-12-25 18:40:20,802,871,915,852,834,0.87,-6.91,8.44,2.68,0.04,-0.22
2024-12-25 18:40:20,796,873,918,853,835,-0.57,-1.42,10.34,2.82,-1.02,0.30
2024-12-25 18:40:21,797,877,924,856,839,-0.69,2.36,10.98,1.29,0.42,-0.10
2024-12-25 18:40:21,799,870,920,854,836,-0.53,0.83,11.26,-4.26,0.46,-0.10
2024-12-25 18:40:21,795,859,911,849,832,-1.20,-10.25,3.35,-3.16,0.07,0.17
2024-12-25 18:40:21,794,863,915,847,831,-1.69,-7.42,5.50,3.55,-0.27,-0.54
2024-12-25 18:40:21,790,867,916,850,831,0.87,0.63,10.68,3.77,-0.37,0.18
2024-12-25 18:40:21,792,881,924,855,835,-0.96,2.58,10.97,1.35,0.11,0.14
2024-12-25 18:40:22,791,862,915,850,832,-0.06,-1.38,10.25,-5.66,0.45,0.17
2024-12-25 18:40:22,791,858,910,847,829,-1.52,-9.76,3.63,-2.22,0.25,0.26
2024-12-25 18:40:22,793,866,915,849,831,-1.90,-2.95,5.80,7.63,-0.98,-0.45
2024-12-25 18:40:22,790,873,919,850,831,-0.74,2.01,10.98,1.32,0.43,-0.20
2024-12-25 18:40:22,790,858,910,846,827,0.05,0.44,11.20,-4.48,0.25,0.61
2024-12-25 18:40:23,791,857,912,843,825,-1.89,-7.56,6.51,-2.12,0.02,0.10
2024-12-25 18:40:23,795,876,920,853,838,-2.26,-5.70,7.37,3.74,0.00,-0.44
2024-12-25 18:40:23,792,879,923,856,837,-0.47,2.83,10.74,2.49,0.46,0.18
2024-12-25 18:40:23,796,876,924,856,839,-0.47,2.53,11.66,-1.96,-0.16,0.21
2024-12-25 18:40:23,789,868,917,851,835,-0.36,-8.97,5.76,-5.86,-0.15,0.01
2024-12-25 18:40:24,792,874,923,855,841,-1.30,-10.34,1.72,-0.14,0.15,0.04
2024-12-25 18:40:24,793,879,928,860,843,-0.35,-7.26,5.62,6.54,0.26,-1.29
2024-12-25 18:40:24,788,878,925,856,839,1.50,1.10,10.93,2.37,0.09,0.06
2024-12-25 18:40:24,790,875,921,855,838,0.23,2.67,12.41,-1.30,-0.31,0.18
2024-12-25 18:40:24,791,869,921,854,837,0.01,-3.56,8.39,-5.91,0.70,1.32
2024-12-25 18:40:24,792,869,920,853,839,-1.75,-9.51,0.92,-2.39,-0.24,0.38
2024-12-25 18:40:25,795,869,918,854,838,-2.81,-10.29,-0.71,-0.24,-0.08,0.14
2024-12-25 18:40:25,790,869,919,852,834,-1.91,-8.94,3.19,5.58,1.00,-1.15
2024-12-25 18:40:25,791,865,918,850,829,-0.87,-2.16,9.47,3.57,-0.30,-0.00
2024-12-25 18:40:25,787,872,919,851,832,-0.44,1.96,11.23,0.55,0.20,0.02
2024-12-25 18:40:25,788,865,917,851,833,-0.89,-1.67,9.22,-7.39,0.83,0.18
2024-12-25 18:40:26,790,863,913,847,829,-1.51,-9.67,-0.30,-2.19,0.02,0.85
2024-12-25 18:40:26,789,865,915,848,832,-1.75,-10.83,0.61,2.64,0.31,-0.57
2024-12-25 18:40:26,788,867,917,848,832,-1.43,-4.95,7.14,5.33,0.24,-0.45
2024-12-25 18:40:26,790,872,920,852,831,0.36,2.15,11.01,1.66,0.10,0.22
2024-12-25 18:40:26,789,868,917,849,832,-0.69,3.22,11.62,-1.64,-0.39,0.08
2024-12-25 18:40:27,788,858,913,847,830,-1.58,-2.88,8.72,-6.51,0.37,0.12
2024-12-25 18:40:27,791,861,915,848,829,-0.82,-9.46,1.79,-2.75,0.17,0.67
2024-12-25 18:40:27,789,863,912,849,829,-2.87,-9.51,-1.16,0.81,0.04,-0.23
2024-12-25 18:40:27,791,869,918,849,833,-1.96,-7.97,4.02,5.24,0.57,-0.70
2024-12-25 18:40:27,788,863,913,846,828,-0.49,-1.14,9.88,3.09,-0.26,0.11
2024-12-25 18:40:27,789,868,917,849,833,-0.22,2.33,12.05,0.99,0.29,0.13
2024-12-25 18:40:28,790,861,913,847,830,0.71,-1.54,10.49,-5.08,0.02,0.35
2024-12-25 18:40:28,790,861,913,848,832,-0.64,-8.89,2.70,-4.51,-0.41,0.26
2024-12-25 18:40:28,793,859,910,845,828,-1.65,-10.03,-1.10,0.78,0.31,-0.02
2024-12-25 18:40:28,792,863,913,847,828,-0.43,-9.36,4.94,5.31,0.94,-0.69
2024-12-25 18:40:28,790,869,918,847,831,0.71,-0.60,10.79,2.27,-0.65,0.32
2024-12-25 18:40:29,798,878,923,852,836,-0.04,2.73,11.97,0.23,0.10,0.21
2024-12-25 18:40:29,789,857,913,851,832,-1.99,-3.56,8.03,-7.94,0.26,1.57
2024-12-25 18:40:29,791,853,907,846,829,-2.32,-9.77,-1.00,-2.36,0.15,1.17
2024-12-25 18:40:29,794,854,911,846,831,-2.13,-10.72,-0.13,2.59,0.73,-0.66
2024-12-25 18:40:29,790,857,911,846,829,-0.47,-5.96,7.12,5.79,0.36,-0.81
2024-12-25 18:40:29,788,856,910,846,827,0.24,0.33,11.47,2.02,0.17,-0.19
2024-12-25 18:40:30,791,855,910,843,828,0.52,0.87,11.26,-3.67,-0.07,0.09
2024-12-25 18:40:30,791,852,908,846,828,-0.15,-10.42,2.32,-5.18,-0.87,0.27
2024-12-25 18:40:30,791,862,912,847,832,-0.88,-10.01,0.07,0.73,0.10,-0.20
2024-12-25 18:40:30,795,867,917,850,835,-0.70,-6.96,6.04,3.16,0.07,-0.43
2024-12-25 18:40:30,792,873,918,850,834,-0.55,-1.90,9.43,3.81,0.08,0.05
2024-12-25 18:40:31,793,872,922,854,836,0.30,-0.89,11.26,-0.73,0.09,0.12
2024-12-25 18:40:31,791,863,915,849,832,-1.35,-3.88,8.99,-3.56,0.18,0.73
2024-12-25 18:40:31,791,857,909,845,829,-0.99,-10.64,2.24,-3.83,-0.13,0.39
2024-12-25 18:40:31,791,856,909,845,829,-2.00,-10.41,-0.14,1.04,0.33,-0.29
2024-12-25 18:40:31,792,863,915,846,830,-0.39,-7.37,5.96,4.74,0.21,-0.54
2024-12-25 18:40:32,790,877,922,850,833,-0.45,-3.22,9.97,2.62,-0.24,-0.13
2024-12-25 18:40:32,790,884,925,855,837,-0.50,0.61,11.77,-0.09,0.09,0.11
2024-12-25 18:40:32,794,875,919,854,837,-1.20,-7.50,6.19,-7.84,0.26,0.16
2024-12-25 18:40:32,794,873,919,851,834,-1.64,-9.10,-0.50,-0.45,-0.38,0.01
2024-12-25 18:40:32,795,876,918,853,835,-2.19,-8.09,3.37,4.13,0.17,-0.29
2024-12-25 18:40:32,789,873,916,851,833,-0.18,-4.48,9.26,3.96,0.11,-0.01
2024-12-25 18:40:33,791,874,918,850,834,-0.13,1.55,12.26,-0.64,0.36,-0.03
2024-12-25 18:40:33,790,861,913,847,831,-0.26,-7.24,6.48,-6.68,-0.68,0.52
2024-12-25 18:40:33,794,858,907,845,827,-1.84,-8.64,-0.39,-0.49,-0.11,0.20
2024-12-25 18:40:33,798,872,919,850,837,-1.13,-11.15,1.11,4.03,1.08,-0.88
2024-12-25 18:40:33,790,870,918,850,831,-0.70,-3.72,8.37,5.19,0.64,-0.65
2024-12-25 18:40:34,789,879,923,854,834,-0.63,2.83,11.85,0.70,0.15,-0.02
2024-12-25 18:40:34,789,860,913,850,830,-0.49,-3.48,9.21,-5.59,-0.20,0.42
2024-12-25 18:40:34,791,859,911,847,829,-0.34,-12.33,-0.84,-4.18,-0.61,0.97
2024-12-25 18:40:34,793,862,915,846,831,-0.68,-10.97,0.23,3.07,0.85,-0.54
2024-12-25 18:40:34,799,869,920,851,833,0.10,-5.05,8.23,5.68,-0.06,-0.51
2024-12-25 18:40:35,794,873,919,849,832,0.25,1.42,11.38,1.75,0.03,-0.05
2024-12-25 18:40:35,790,862,912,849,829,-0.10,-0.35,10.46,-4.86,0.58,0.65
2024-12-25 18:40:35,789,857,912,849,831,0.17,-9.90,4.43,-4.27,-0.93,-0.07
2024-12-25 18:40:35,787,853,910,848,825,-1.50,-10.21,0.08,-0.27,-0.07,0.11
2024-12-25 18:40:35,790,860,913,848,829,-1.73,-7.65,5.21,5.33,0.96,-0.42
2024-12-25 18:40:35,791,869,919,850,831,0.86,-0.19,10.32,3.77,-0.20,0.22
2024-12-25 18:40:36,792,873,921,856,834,-0.63,3.50,11.50,-0.64,0.11,0.20
2024-12-25 18:40:36,787,845,902,843,822,-1.60,-3.11,8.50,-6.84,0.93,1.31
2024-12-25 18:40:36,788,841,899,840,822,-1.98,-9.48,1.79,-1.70,-0.02,-0.14
2024-12-25 18:40:36,795,866,914,851,830,-2.28,-10.41,3.49,4.24,0.13,-0.32
2024-12-25 18:40:36,798,873,921,850,835,-0.66,-1.56,10.23,2.98,-0.52,0.11
2024-12-25 18:40:37,797,878,924,858,838,-1.41,3.82,11.23,0.75,0.40,0.37
2024-12-25 18:40:37,791,872,921,853,836,-1.43,-1.90,9.76,-5.42,-0.25,-0.28
2024-12-25 18:40:37,791,868,914,851,833,-1.44,-9.49,2.76,-5.26,-0.58,0.36
2024-12-25 18:40:37,793,860,911,846,829,-2.31,-9.21,-2.31,0.54,0.13,0.07
2024-12-25 18:40:37,792,861,912,847,829,-2.02,-9.66,2.33,5.89,0.86,-0.70
2024-12-25 18:40:38,788,855,908,845,824,-1.05,2.02,10.85,3.51,-0.35,0.51
2024-12-25 18:40:38,787,850,905,843,823,-1.52,-0.15,11.45,-2.67,0.25,-0.18
2024-12-25 18:40:38,787,845,900,838,821,-1.50,-8.03,5.98,-4.41,-0.02,0.39
2024-12-25 18:40:38,788,845,899,839,818,-1.80,-10.06,0.39,-1.70,-0.12,0.04
2024-12-25 18:40:38,792,855,904,839,822,-2.32,-10.94,1.00,3.54,0.40,-0.45
2024-12-25 18:40:38,793,858,907,842,825,-1.34,-4.60,8.08,3.49,0.20,-0.28
2024-12-25 18:40:39,790,853,908,841,824,-0.73,-0.82,10.51,2.69,-0.30,0.23
2024-12-25 18:40:39,793,851,907,844,823,-0.69,1.39,11.71,-2.88,0.08,-0.13
2024-12-25 18:40:39,789,849,904,842,821,-0.50,-6.94,5.99,-4.93,-0.39,0.03
2024-12-25 18:40:39,790,852,903,841,824,-1.31,-9.92,0.72,-0.38,-0.10,0.11
2024-12-25 18:40:39,793,860,911,846,829,-1.36,-7.87,5.18,4.43,0.06,-0.20
2024-12-25 18:40:40,791,860,911,846,829,-0.61,-1.64,9.54,3.87,0.17,0.07
2024-12-25 18:40:40,804,870,916,849,832,-0.51,1.77,11.26,0.59,-0.07,0.28
2024-12-25 18:40:40,793,852,908,843,824,0.34,-0.82,10.21,-4.76,0.53,0.80
2024-12-25 18:40:40,793,850,905,842,827,-1.29,-9.65,3.99,-5.45,0.33,0.58
2024-12-25 18:40:40,794,851,904,843,829,-2.15,-10.54,0.86,1.23,0.16,-0.20
2024-12-25 18:40:41,796,848,904,843,827,-0.74,-5.78,6.78,3.78,0.05,-0.35
2024-12-25 18:40:41,798,851,907,842,826,-1.14,-1.43,10.13,3.02,-0.19,0.01
2024-12-25 18:40:41,800,855,912,845,827,-1.02,2.27,11.68,0.12,0.29,0.02
2024-12-25 18:40:41,803,855,911,846,829,-0.63,-2.15,10.19,-4.51,1.61,-0.00
2024-12-25 18:40:41,796,850,910,847,829,-1.73,-8.18,4.61,-3.18,0.11,0.01
2024-12-25 18:40:41,798,849,906,844,827,-1.73,-10.59,2.45,1.66,0.13,-0.10
2024-12-25 18:40:42,796,856,910,843,828,-0.97,-2.18,9.14,3.89,-0.95,0.04
2024-12-25 18:40:42,803,866,913,846,828,-0.67,1.48,11.26,2.16,0.13,0.40
2024-12-25 18:40:42,797,852,908,844,824,-0.12,0.10,11.04,-3.77,0.08,-0.24
2024-12-25 18:40:42,795,844,900,838,822,-3.14,-7.45,5.02,-4.80,-0.27,0.05
2024-12-25 18:40:42,797,843,897,838,822,-2.04,-10.54,1.68,1.17,0.49,-0.28
2024-12-25 18:40:43,791,854,906,840,821,-1.32,-4.04,7.85,5.17,0.20,0.20
2024-12-25 18:40:43,788,858,909,840,823,-1.30,2.23,11.25,1.47,-0.10,0.56
2024-12-25 18:40:43,792,857,910,844,828,-0.75,0.44,11.12,-4.86,0.23,0.58
2024-12-25 18:40:43,787,850,908,842,824,-1.22,-10.83,2.07,-4.47,-0.12,0.15
2024-12-25 18:40:43,790,856,911,841,827,-2.17,-10.09,-1.39,0.96,0.15,-0.19
2024-12-25 18:40:44,789,867,918,850,834,-2.58,-5.37,5.72,5.11,-0.22,-0.19
2024-12-25 18:40:44,788,887,926,857,838,-1.22,0.13,11.07,2.62,-0.16,0.34
2024-12-25 18:40:44,786,885,926,857,839,-0.41,0.37,11.87,-2.19,0.11,-0.09
2024-12-25 18:40:44,787,870,916,848,834,-0.62,-8.91,5.16,-5.74,0.07,0.04
2024-12-25 18:40:44,786,878,919,853,833,-0.91,-9.85,0.23,-0.24,-0.18,0.17
2024-12-25 18:40:44,791,891,923,857,840,-2.38,-7.91,2.59,5.24,0.73,0.14
2024-12-25 18:40:45,788,890,926,857,841,-1.38,-1.03,11.02,2.58,-0.40,0.33
2024-12-25 18:40:45,787,892,927,861,844,-1.18,-0.20,12.14,-2.01,-0.06,-0.05
2024-12-25 18:40:45,792,876,920,859,840,-0.94,-7.74,5.31,-5.36,1.10,-0.29
2024-12-25 18:40:45,796,869,914,850,832,-1.15,-9.66,-0.55,0.44,0.07,0.07
2024-12-25 18:40:45,791,869,915,850,833,-1.51,-6.85,5.32,5.26,0.06,-0.16
2024-12-25 18:40:46,790,871,915,850,832,-0.16,0.76,11.47,2.05,-0.50,0.38
2024-12-25 18:40:46,789,869,917,850,832,-1.36,0.50,12.40,-2.05,0.40,-0.01
2024-12-25 18:40:46,787,855,906,843,824,-2.78,-10.03,3.43,-6.52,0.20,-0.65
2024-12-25 18:40:46,788,854,905,842,825,-0.57,-9.03,0.09,0.86,0.02,-0.08
2024-12-25 18:40:46,789,855,907,844,825,-1.68,-5.85,6.21,4.71,0.32,-0.04
2024-12-25 18:40:47,787,858,909,843,828,-0.03,-0.20,11.34,3.82,-0.31,0.48
2024-12-25 18:40:47,787,856,908,844,826,-1.01,1.00,11.87,-2.75,-0.10,-0.05
2024-12-25 18:40:47,787,854,904,842,824,-1.18,-8.09,5.69,-5.82,-0.07,-0.08
2024-12-25 18:40:47,787,850,902,842,823,-1.19,-9.95,0.05,1.84,0.07,-0.19
2024-12-25 18:40:47,788,854,905,841,823,-0.19,-4.04,9.07,3.73,-0.12,0.02
2024-12-25 18:40:47,793,870,913,849,833,-0.23,-2.44,11.09,1.36,-0.06,0.05
2024-12-25 18:40:48,799,878,922,858,839,-0.17,1.52,11.67,0.49,-0.12,0.10
2024-12-25 18:40:48,797,867,921,860,842,-0.28,-2.35,9.60,-4.91,0.17,0.15
2024-12-25 18:40:48,804,872,923,861,843,-1.05,-9.59,2.84,-0.95,0.00,-0.21
2024-12-25 18:40:48,799,870,920,856,837,-1.22,-4.92,7.57,4.58,0.90,-0.28
2024-12-25 18:40:48,795,871,921,855,837,0.34,2.77,12.35,1.74,-0.07,0.39
2024-12-25 18:40:49,791,860,913,852,833,0.01,0.14,10.75,-4.72,-0.12,0.26
2024-12-25 18:40:49,792,855,911,850,830,-1.12,-9.20,2.71,-4.59,-0.62,0.69
2024-12-25 18:40:49,792,857,911,847,830,-1.10,-10.79,1.04,2.24,0.72,-0.30
2024-12-25 18:40:49,788,858,913,847,830,0.17,-4.45,8.74,5.28,0.27,-0.61
2024-12-25 18:40:49,791,866,916,848,831,0.02,1.37,11.09,2.40,-0.08,0.15
2024-12-25 18:40:49,794,860,913,849,827,0.28,0.74,11.21,-4.80,0.21,0.34
2024-12-25 18:40:50,793,854,911,845,828,0.28,-11.94,-0.57,-4.30,-0.28,1.25
2024-12-25 18:40:50,792,858,909,847,829,-1.15,-11.31,0.84,2.61,0.60,-0.56
2024-12-25 18:40:50,788,855,909,846,825,-1.04,-1.13,8.77,5.39,-0.33,-0.12
2024-12-25 18:40:50,787,857,912,846,827,-0.69,1.98,11.64,0.75,0.01,0.14
2024-12-25 18:40:50,786,845,903,841,822,-0.42,-1.30,10.59,-5.43,-0.12,0.26
2024-12-25 18:40:51,790,844,902,842,822,-1.01,-9.67,1.75,-2.35,-0.20,0.14
2024-12-25 18:40:51,791,846,905,842,822,-1.41,-9.71,3.33,3.81,0.81,-0.29
2024-12-25 18:40:51,788,847,902,840,821,-1.07,-1.34,10.07,4.09,0.05,0.13
2024-12-25 18:40:51,787,846,904,840,821,-1.02,0.70,11.97,-2.81,-0.06,0.01
2024-12-25 18:40:51,790,845,903,840,823,-0.14,-8.42,5.96,-4.14,-0.21,0.04
2024-12-25 18:40:52,787,845,901,838,821,-0.66,-8.87,3.66,1.56,0.38,-0.09
2024-12-25 18:40:52,790,848,903,841,822,-0.51,-2.29,10.21,3.90,-0.53,0.26
2024-12-25 18:40:52,791,867,918,850,832,-1.10,3.21,11.33,2.56,0.46,0.48
2024-12-25 18:40:52,794,874,923,856,839,-0.25,1.47,11.09,-3.85,-0.40,-0.29
2024-12-25 18:40:52,792,876,922,854,843,-0.41,-9.81,3.97,-6.75,0.26,0.02
2024-12-25 18:40:52,795,882,923,856,842,-0.83,-9.81,-0.70,0.67,0.14,0.01
2024-12-25 18:40:53,789,884,919,855,838,-1.13,-4.00,6.37,4.42,-0.37,-0.22
2024-12-25 18:40:53,785,883,916,853,836,-0.03,-0.06,12.09,1.90,-0.06,0.32
2024-12-25 18:40:53,787,878,914,852,834,-0.18,-2.31,10.89,-4.66,0.67,-0.18
2024-12-25 18:40:53,796,864,908,846,829,-0.86,-9.93,-0.38,-3.24,-0.36,0.02
2024-12-25 18:40:53,795,860,907,845,829,-1.28,-9.56,0.24,3.98,0.70,-0.35
2024-12-25 18:40:54,795,860,907,844,827,-0.58,-4.49,9.51,4.16,0.68,-0.43
2024-12-25 18:40:54,793,867,911,846,829,0.17,3.08,12.27,0.74,-0.14,-0.22
2024-12-25 18:40:54,793,856,906,845,826,-0.33,-2.17,9.48,-5.97,-0.26,0.17
2024-12-25 18:40:54,792,852,903,842,824,0.13,-10.72,1.62,-1.53,-0.09,0.35
2024-12-25 18:40:54,790,852,903,844,825,-0.05,-9.90,4.34,3.95,0.34,-0.61
2024-12-25 18:40:55,790,862,908,843,827,0.06,-2.50,10.93,1.91,0.64,0.07
2024-12-25 18:40:55,795,867,915,847,830,0.21,-1.65,11.15,1.09,0.22,0.06
2024-12-25 18:40:55,791,856,909,845,828,-0.45,-1.96,11.37,-1.68,-0.01,0.16
2024-12-25 18:40:55,786,846,905,843,825,-0.21,-3.13,9.43,-0.44,0.12,-0.35
2024-12-25 18:40:55,787,848,904,843,828,0.30,-0.18,9.56,-1.96,0.49,0.24
2024-12-25 18:40:55,796,855,908,847,836,-1.70,-13.07,-0.79,-1.87,-0.54,0.61
2024-12-25 18:40:56,797,869,916,850,837,-1.75,-10.04,3.37,5.70,1.17,-0.59
2024-12-25 18:40:56,791,876,921,852,834,0.02,3.65,10.10,4.25,0.14,0.38
2024-12-25 18:40:56,792,872,921,855,834,0.20,1.61,11.46,-4.13,-0.42,0.29
2024-12-25 18:40:56,790,861,912,849,831,0.25,-12.46,2.40,-4.35,-1.11,0.38
2024-12-25 18:40:56,795,868,918,851,833,-0.55,-11.82,1.23,3.32,0.65,-0.12
2024-12-25 18:40:57,790,871,919,850,833,0.49,1.51,9.60,5.58,-0.56,-0.06
2024-12-25 18:40:57,793,872,924,856,838,-0.68,4.79,10.97,-0.64,-0.09,-0.04
2024-12-25 18:40:57,788,850,913,847,828,-1.32,0.25,9.80,-5.97,0.67,0.91
2024-12-25 18:40:57,792,855,910,846,828,-0.88,-10.51,0.70,-2.56,-0.19,0.18
2024-12-25 18:40:57,799,869,917,849,836,-1.09,-11.65,1.86,4.12,0.96,-0.29
2024-12-25 18:40:58,790,863,914,848,828,0.37,0.11,10.68,2.54,-0.70,0.48
2024-12-25 18:40:58,792,866,919,853,833,-0.58,2.02,12.00,-1.10,-0.41,0.24
2024-12-25 18:40:58,791,860,914,850,830,-1.77,-8.24,6.62,-6.97,0.13,0.16
2024-12-25 18:40:58,793,858,913,848,830,-0.88,-9.87,-0.61,-1.32,-0.32,-0.01
2024-12-25 18:40:58,796,872,919,852,835,-0.90,-9.18,2.98,3.69,0.67,-0.53
2024-12-25 18:40:58,797,877,925,854,835,-0.54,-5.99,8.49,2.16,-0.51,0.00
2024-12-25 18:40:59,794,876,926,856,839,-0.52,0.31,11.29,0.87,0.08,0.73
2024-12-25 18:40:59,792,865,917,850,835,-0.59,-4.11,8.01,-6.36,-0.08,0.21
2024-12-25 18:40:59,789,859,911,846,830,-1.52,-10.32,-0.66,-2.20,-0.09,0.50
2024-12-25 18:40:59,795,863,914,850,833,-2.38,-9.34,-0.00,3.03,0.29,-0.41
2024-12-25 18:40:59,793,870,917,850,833,0.22,-6.77,6.98,4.08,0.54,-0.72
2024-12-25 18:41:00,790,871,916,849,831,0.82,-1.27,10.68,2.69,-0.40,-0.19
2024-12-25 18:41:00,790,857,911,847,828,0.21,-2.51,9.93,-5.09,0.08,1.22
2024-12-25 18:41:00,790,852,908,845,827,-1.44,-10.41,2.20,-3.36,-0.13,0.72
2024-12-25 18:41:00,791,852,905,842,827,-1.97,-11.00,0.06,0.41,0.44,-0.35
2024-12-25 18:41:00,791,864,912,846,831,-1.07,-6.82,5.60,3.44,0.14,-0.71
2024-12-25 18:41:01,796,882,926,856,839,-0.97,-4.34,9.00,3.24,-0.24,0.20
2024-12-25 18:41:01,792,878,925,859,843,0.69,-2.54,10.89,-2.81,0.04,0.57
2024-12-25 18:41:01,790,862,917,851,837,-1.78,-8.87,2.11,-5.91,-0.09,0.85
2024-12-25 18:41:01,792,861,914,849,834,-2.19,-10.10,-2.02,1.12,0.25,-0.40
2024-12-25 18:41:01,789,862,913,847,832,-1.67,-7.39,4.47,4.67,0.77,-0.85
2024-12-25 18:41:01,791,865,917,849,830,0.07,-2.68,9.52,4.18,-0.28,-0.24
2024-12-25 18:41:02,789,864,915,850,831,0.29,0.85,12.09,-2.56,-0.39,0.41
2024-12-25 18:41:02,787,847,907,845,826,-0.64,-6.22,5.82,-6.51,0.23,1.24
2024-12-25 18:41:02,789,847,905,841,824,-1.74,-9.09,-1.03,-1.60,-0.05,0.34
2024-12-25 18:41:02,802,879,920,852,838,-2.80,-7.29,1.74,7.74,0.61,-0.93
2024-12-25 18:41:02,806,884,923,856,841,-0.72,-5.41,8.00,3.36,0.03,-0.60
2024-12-25 18:41:03,802,882,925,859,840,-0.21,1.78,12.51,0.08,0.19,0.11
2024-12-25 18:41:03,793,871,917,851,834,-1.10,-7.38,5.18,-7.64,-0.04,1.21
2024-12-25 18:41:03,795,863,916,850,833,-2.63,-9.45,-1.68,-0.54,0.05,0.10
2024-12-25 18:41:03,795,866,916,851,833,-1.49,-9.44,3.08,5.85,0.90,-0.88
2024-12-25 18:41:03,800,876,919,851,834,-1.57,-4.64,9.54,3.20,0.23,-0.22
2024-12-25 18:41:03,795,872,923,854,835,-1.63,2.58,11.77,-0.29,0.34,0.12
2024-12-25 18:41:04,791,851,909,845,827,-0.93,-5.17,7.55,-7.47,0.32,0.45
2024-12-25 18:41:04,792,851,904,842,825,-2.35,-9.66,-2.71,-1.22,0.13,0.52
2024-12-25 18:41:04,795,860,914,845,830,-1.82,-9.83,1.37,4.32,0.27,-1.03
2024-12-25 18:41:04,794,865,915,846,829,-0.35,-1.73,9.20,4.95,-0.54,-0.27
2024-12-25 18:41:04,793,870,922,851,831,-0.77,3.26,12.12,0.77,0.14,-0.09
2024-12-25 18:41:05,787,842,903,840,822,-0.71,-1.08,8.94,-7.86,0.26,0.63
2024-12-25 18:41:05,792,848,904,839,823,-1.84,-9.91,-2.27,-1.77,0.40,0.47
2024-12-25 18:41:05,798,864,915,844,832,-1.93,-9.63,1.91,4.77,0.26,-0.78
2024-12-25 18:41:05,794,863,916,850,833,0.49,0.64,9.85,5.15,-0.74,-0.08
2024-12-25 18:41:05,794,867,916,849,832,-0.27,3.06,12.17,-1.47,-0.26,0.38
2024-12-25 18:41:06,791,844,902,842,825,-2.05,-4.44,7.99,-6.07,0.23,0.20
2024-12-25 18:41:06,792,842,900,838,821,-0.93,-10.34,0.46,-2.56,0.27,0.31
2024-12-25 18:41:06,793,849,907,841,823,-1.78,-11.37,0.43,3.03,0.47,-0.60
2024-12-25 18:41:06,794,862,911,844,828,1.36,-3.71,9.22,4.65,-1.19,-1.01
2024-12-25 18:41:06,789,867,916,847,830,0.22,0.75,11.18,1.26,0.62,-0.03
2024-12-25 18:41:06,788,850,908,844,826,-2.00,-2.70,7.93,-7.15,0.71,1.15
2024-12-25 18:41:07,788,856,910,844,828,-2.29,-10.33,-0.42,-1.69,0.27,0.47
2024-12-25 18:41:07,792,871,920,854,838,-1.06,-9.80,4.00,4.93,0.26,-1.31
2024-12-25 18:41:07,790,877,926,860,847,1.40,-3.57,9.86,3.38,-0.43,-0.51
2024-12-25 18:41:07,789,865,921,856,842,0.33,-2.54,10.93,-4.29,0.49,1.10
2024-12-25 18:41:07,789,854,911,849,834,-3.55,-10.79,-1.90,-3.45,0.21,0.68
2024-12-25 18:41:08,790,857,911,850,834,-3.26,-10.22,-0.46,2.35,0.47,-1.05
2024-12-25 18:41:08,788,860,912,849,835,-1.20,-4.29,8.05,4.45,-0.17,-0.79
2024-12-25 18:41:08,790,859,915,847,833,-0.10,0.82,12.07,0.93,0.10,-0.01
2024-12-25 18:41:08,788,846,906,844,828,-1.04,-4.46,8.85,-6.58,-0.46,0.59
2024-12-25 18:41:08,789,845,906,843,826,-2.29,-9.24,-0.17,-1.63,0.15,0.49
2024-12-25 18:41:09,793,849,904,843,828,-2.19,-11.25,-0.12,2.31,0.67,-0.70
2024-12-25 18:41:09,799,847,907,844,827,-0.91,-4.16,8.49,3.97,-0.44,-0.27
2024-12-25 18:41:09,797,851,910,844,827,-1.25,-1.29,10.58,2.48,-0.09,0.13
2024-12-25 18:41:09,807,849,910,843,826,-0.76,0.35,11.60,-2.63,-0.17,0.06
2024-12-25 18:41:09,807,848,909,845,830,-0.69,-7.86,5.73,-5.65,0.21,0.23
2024-12-25 18:41:09,802,846,904,843,826,-1.85,-8.32,-3.04,-1.80,-0.25,0.50
2024-12-25 18:41:10,801,854,911,845,830,-2.06,-9.95,-1.19,3.65,0.75,-0.44
2024-12-25 18:41:10,793,851,911,848,829,-0.73,-5.30,7.51,5.56,-0.18,-0.26
2024-12-25 18:41:10,788,848,908,845,827,-0.34,-0.94,12.12,-0.93,0.14,-0.06
2024-12-25 18:41:10,791,844,904,842,826,-0.94,-7.94,5.04,-6.17,-0.27,0.97
2024-12-25 18:41:10,795,846,901,842,824,-1.97,-9.77,-1.72,-0.32,-0.05,-0.04
2024-12-25 18:41:11,800,848,905,842,826,-1.61,-8.29,2.75,5.10,0.56,-0.19
2024-12-25 18:41:11,798,850,908,843,825,-0.20,-2.73,9.99,3.86,0.27,-0.37
2024-12-25 18:41:11,802,849,906,842,828,-0.26,-3.10,10.39,-4.93,-0.54,0.46
2024-12-25 18:41:11,795,851,909,846,832,-1.02,-10.28,-0.52,-3.81,-0.17,0.97
2024-12-25 18:41:11,798,852,909,845,832,-2.49,-9.59,-3.23,0.99,0.24,-0.15
2024-12-25 18:41:12,794,868,916,848,832,-1.41,-7.24,4.18,5.20,0.69,-0.58
2024-12-25 18:41:12,792,888,923,855,837,0.02,-2.17,11.20,2.12,-0.26,-0.17
2024-12-25 18:41:12,792,883,915,853,837,-0.18,-5.06,9.53,-5.79,-0.53,0.16
2024-12-25 18:41:12,794,872,910,848,833,-0.94,-10.08,-2.60,-2.63,-0.11,0.73
2024-12-25 18:41:12,796,874,914,850,834,-1.78,-10.53,-0.92,4.02,0.72,-0.38
2024-12-25 18:41:12,792,869,911,847,831,-0.53,-3.82,8.61,4.15,-0.15,0.16
2024-12-25 18:41:13,791,871,916,848,833,-0.48,0.03,12.12,0.27,-0.08,0.19
2024-12-25 18:41:13,794,856,908,845,830,-0.62,-5.70,7.90,-6.71,0.07,0.35
2024-12-25 18:41:13,795,855,908,844,827,-1.89,-9.41,-2.91,-1.33,-0.05,0.42
2024-12-25 18:41:13,794,858,912,846,829,-1.23,-8.94,3.13,6.75,1.02,-0.45
2024-12-25 18:41:13,790,857,907,845,826,-0.15,-0.38,11.32,2.30,-0.37,-0.04
2024-12-25 18:41:14,791,848,906,843,826,-0.92,-0.72,11.17,-4.16,-0.43,0.56
2024-12-25 18:41:14,793,873,919,854,837,-0.75,-9.66,3.06,-3.58,-0.49,0.26
2024-12-25 18:41:14,801,876,925,859,843,-1.57,-11.01,-1.70,-1.08,-0.31,-0.16
2024-12-25 18:41:14,798,874,924,857,840,-1.55,-9.90,1.04,3.71,1.02,-0.55
2024-12-25 18:41:14,791,866,918,853,833,-0.38,-3.91,8.50,4.64,0.16,-0.61
2024-12-25 18:41:15,793,867,918,850,833,0.92,1.26,12.22,-0.65,0.06,0.06
2024-12-25 18:41:15,793,856,911,848,830,-0.01,-6.80,7.95,-6.67,0.16,1.07
2024-12-25 18:41:15,798,856,907,844,826,-2.06,-8.30,-2.02,-1.14,-0.11,0.11
2024-12-25 18:41:15,802,869,917,847,831,-1.37,-11.07,-0.55,3.54,0.54,-0.56
2024-12-25 18:41:15,799,868,915,849,833,-0.14,-5.33,8.15,5.33,-0.10,-0.29
2024-12-25 18:41:15,793,869,918,849,831,-0.44,2.16,12.39,-0.15,0.02,0.18
2024-12-25 18:41:16,792,860,912,848,830,-1.24,-5.86,7.31,-6.49,0.27,0.52
2024-12-25 18:41:16,793,858,909,846,827,-1.87,-10.08,-1.51,-1.48,-0.13,0.38
2024-12-25 18:41:16,796,864,916,848,829,-1.50,-9.38,3.01,5.71,0.81,-0.41
2024-12-25 18:41:16,796,867,915,848,830,-0.78,-1.57,10.22,3.65,-0.18,-0.22
2024-12-25 18:41:16,795,859,910,845,829,-0.34,-1.02,11.30,-3.48,-0.51,0.44
2024-12-25 18:41:17,794,856,911,845,826,-0.36,-10.48,1.87,-5.45,-0.81,0.42
2024-12-25 18:41:17,796,854,907,843,825,-1.62,-10.11,-1.63,0.81,0.15,-0.04
2024-12-25 18:41:17,803,854,908,844,828,-1.07,-8.01,4.64,4.90,0.63,-0.28
2024-12-25 18:41:17,805,858,911,844,827,-1.59,-3.10,9.49,2.64,-0.16,0.32
2024-12-25 18:41:17,802,859,912,847,827,-0.62,0.52,11.84,-1.52,0.10,-0.00
2024-12-25 18:41:18,798,853,908,845,829,-0.26,-8.71,4.48,-6.90,-0.58,0.21
2024-12-25 18:41:18,799,860,910,848,829,-1.42,-9.82,-2.30,0.84,-0.35,0.20
2024-12-25 18:41:18,799,873,917,852,835,-1.02,-7.56,5.40,5.10,0.77,-0.26
2024-12-25 18:41:18,795,887,929,862,844,-0.56,-1.31,11.34,1.96,0.02,0.09
2024-12-25 18:41:18,794,874,923,859,840,-1.25,-2.81,8.93,-7.10,-0.10,-0.34
2024-12-25 18:41:18,797,868,918,856,835,-0.75,-9.18,-2.32,-1.64,-0.17,0.27
2024-12-25 18:41:19,798,870,920,857,835,-1.41,-11.04,-0.03,4.47,0.73,0.06
2024-12-25 18:41:19,796,872,921,859,838,-1.03,-2.56,9.37,4.13,0.07,0.22
2024-12-25 18:41:19,799,879,925,863,845,-0.87,0.83,11.77,-0.77,-0.12,0.10
2024-12-25 18:41:19,796,871,923,862,843,-0.55,-7.06,5.22,-6.24,-0.72,-0.21
2024-12-25 18:41:19,796,870,921,858,840,-0.51,-9.59,-1.36,-0.99,-0.06,0.24
2024-12-25 18:41:20,800,875,924,857,839,-0.93,-10.89,1.30,5.13,0.95,-0.22
2024-12-25 18:41:20,796,871,923,858,838,-0.49,-2.52,9.25,4.52,0.30,0.26
