Timestamp,Flex1,Flex2,Flex3,Flex4,Flex5,AccelX,AccelY,AccelZ,GyroX,GyroY,GyroZ
2024-12-25 18:47:59,790,792,805,778,772,-1.45,1.88,10.64,-0.57,1.21,0.41
2024-12-25 18:47:59,784,784,793,774,771,-3.19,1.33,10.11,0.29,1.10,-0.05
2024-12-25 18:47:59,775,777,785,767,769,-3.21,2.02,9.56,0.04,0.30,0.08
2024-12-25 18:47:59,772,775,782,767,767,-3.26,1.76,9.42,-0.68,0.11,0.32
2024-12-25 18:47:59,776,776,785,769,768,-3.88,1.29,9.48,-0.03,-0.19,-0.07
2024-12-25 18:47:59,777,776,783,767,767,-4.12,0.59,8.84,-0.54,0.41,0.10
2024-12-25 18:47:59,783,777,786,770,766,-6.06,0.40,9.86,0.16,0.54,-0.10
2024-12-25 18:47:59,783,781,788,772,767,-2.37,0.95,9.27,-0.25,-0.12,0.08
2024-12-25 18:47:59,784,783,791,773,768,-4.01,-0.02,8.89,-0.19,0.16,0.05
2024-12-25 18:47:59,785,782,793,773,768,-4.61,1.19,10.16,0.17,0.40,0.01
2024-12-25 18:47:59,783,782,793,773,769,-3.76,0.34,10.90,0.44,-0.36,-0.07
2024-12-25 18:47:59,783,784,796,775,771,-3.78,-0.79,7.60,-0.32,0.06,0.08
2024-12-25 18:47:59,779,784,792,774,769,-4.14,0.05,9.91,-0.24,0.32,0.13
2024-12-25 18:47:59,780,784,793,774,769,-3.59,0.23,9.13,-0.01,-0.24,-0.23
2024-12-25 18:47:59,778,785,794,774,768,-5.12,-0.46,9.83,-0.01,-0.17,-0.24
2024-12-25 18:47:59,782,789,798,776,769,-4.62,-0.83,9.65,0.02,0.06,0.02
2024-12-25 18:47:59,782,789,799,775,769,-4.21,-0.64,10.09,-0.13,-0.05,-0.06
2024-12-25 18:47:59,787,788,800,775,771,-3.95,-1.41,8.76,-1.09,-0.09,0.23
2024-12-25 18:47:59,788,789,799,775,771,-3.88,-2.55,10.34,0.49,0.15,0.04
2024-12-25 18:47:59,786,782,791,771,769,-3.72,-0.59,9.88,0.00,-0.08,-0.18
2024-12-25 18:47:59,786,783,790,771,769,-3.54,-0.78,9.41,0.28,0.12,0.35
2024-12-25 18:47:59,780,781,786,769,768,-3.17,-0.26,9.66,0.04,0.12,0.09
2024-12-25 18:47:59,781,780,784,768,768,-4.02,-0.33,9.83,0.15,0.11,-0.12
2024-12-25 18:47:59,783,778,784,767,767,-4.19,-0.01,9.91,-0.29,0.07,-0.05
2024-12-25 18:47:59,782,781,785,767,767,-4.37,-0.66,9.43,-0.40,0.28,-0.13
2024-12-25 18:48:00,787,792,819,780,772,-5.23,-2.94,9.86,-2.25,0.34,-0.22
2024-12-25 18:48:00,785,844,896,835,815,-4.27,-6.11,7.73,-1.85,-0.32,0.19
2024-12-25 18:48:00,783,878,916,858,836,-3.46,-6.87,6.10,-0.98,-0.09,0.01
2024-12-25 18:48:00,784,906,936,885,868,-4.01,-7.96,4.02,-1.30,0.01,0.04
2024-12-25 18:48:00,784,907,937,890,872,-3.66,-8.33,1.57,-0.87,0.05,-0.16
2024-12-25 18:48:01,785,907,939,888,876,-3.79,-8.59,1.28,-0.42,-0.08,-0.05
2024-12-25 18:48:01,787,902,943,888,873,-4.02,-8.97,1.94,0.03,0.09,-0.07
2024-12-25 18:48:01,786,904,940,888,873,-4.13,-9.11,1.92,-0.07,0.04,-0.06
2024-12-25 18:48:01,785,902,940,887,872,-3.78,-8.79,1.61,-0.05,0.04,-0.01
2024-12-25 18:48:01,785,903,941,886,871,-3.67,-9.14,1.90,-0.05,0.05,-0.12
2024-12-25 18:48:01,785,900,936,884,868,-3.78,-9.02,1.62,-0.17,0.05,-0.07
2024-12-25 18:48:02,785,900,938,885,870,-3.60,-9.05,1.61,0.01,0.04,-0.03
2024-12-25 18:48:02,785,901,939,884,872,-3.45,-9.11,1.78,-0.08,0.04,-0.04
2024-12-25 18:48:02,784,897,934,884,868,-3.50,-8.98,1.61,-0.10,0.06,-0.00
2024-12-25 18:48:02,785,899,935,884,868,-3.57,-9.04,1.30,-0.06,0.03,-0.01
2024-12-25 18:48:02,785,898,936,882,869,-3.58,-9.03,1.25,-0.04,0.06,0.00
2024-12-25 18:48:03,787,899,934,882,867,-3.50,-9.31,1.52,-0.03,0.17,-0.00
2024-12-25 18:48:03,787,901,935,883,866,-3.61,-8.59,1.59,-0.10,0.01,0.03
2024-12-25 18:48:03,790,905,936,884,866,-3.75,-8.51,1.13,-0.12,0.02,0.03
2024-12-25 18:48:03,789,905,940,884,866,-3.91,-8.96,0.57,0.01,-0.11,-0.02
2024-12-25 18:48:03,790,905,939,884,866,-3.67,-8.81,1.37,-0.03,-0.02,-0.00
2024-12-25 18:48:04,790,904,940,885,867,-3.96,-9.03,0.97,0.01,0.03,-0.02
2024-12-25 18:48:04,788,902,938,884,867,-3.84,-9.08,1.14,-0.03,0.03,-0.02
2024-12-25 18:48:04,792,900,939,885,868,-3.79,-9.07,1.02,-0.02,-0.01,-0.00
2024-12-25 18:48:04,793,901,938,884,868,-3.93,-9.20,1.22,-0.06,0.01,-0.04
2024-12-25 18:48:04,790,901,937,884,867,-3.94,-9.00,1.03,-0.04,0.04,-0.02
2024-12-25 18:48:04,790,900,941,884,868,-3.76,-8.99,1.07,-0.03,0.03,-0.02
2024-12-25 18:48:05,790,903,935,885,866,-3.79,-9.01,1.14,-0.04,-0.01,-0.03
2024-12-25 18:48:05,791,901,938,884,867,-3.74,-8.95,1.14,-0.05,0.02,-0.03
2024-12-25 18:48:05,790,902,937,884,867,-3.73,-9.10,0.99,-0.00,-0.01,-0.00
2024-12-25 18:48:05,789,900,936,884,866,-3.70,-9.04,1.19,-0.07,0.03,0.00
2024-12-25 18:48:05,790,900,937,882,867,-3.64,-8.95,1.11,-0.03,0.03,-0.02
2024-12-25 18:48:06,790,899,935,883,866,-3.84,-9.05,1.18,-0.05,0.02,0.00
2024-12-25 18:48:06,788,897,934,881,864,-3.70,-9.00,1.14,-0.04,0.03,0.00
2024-12-25 18:48:06,789,896,940,883,867,-3.73,-9.01,1.16,-0.04,0.03,-0.00
2024-12-25 18:48:06,791,898,937,882,866,-3.75,-8.98,1.18,-0.03,0.04,-0.02
2024-12-25 18:48:06,792,898,934,881,866,-3.78,-9.01,1.12,-0.05,0.04,-0.01
2024-12-25 18:48:07,789,899,936,883,866,-3.73,-8.98,1.12,-0.05,0.03,-0.01
2024-12-25 18:48:07,789,899,934,885,865,-3.68,-9.03,1.14,-0.03,0.03,-0.03
2024-12-25 18:48:07,787,899,938,881,864,-3.73,-9.01,1.08,-0.04,0.04,-0.02
2024-12-25 18:48:07,790,898,937,884,866,-3.72,-9.04,1.17,-0.04,0.02,0.00
2024-12-25 18:48:07,792,899,938,883,866,-3.66,-9.03,1.16,-0.04,0.03,-0.02
2024-12-25 18:48:07,789,897,932,883,866,-3.86,-9.15,1.17,-0.04,0.02,-0.00
2024-12-25 18:48:08,789,896,938,881,866,-3.61,-8.87,1.11,-0.03,-0.00,-0.02
2024-12-25 18:48:08,789,899,936,882,863,-3.90,-9.04,1.21,-0.01,0.02,-0.03
2024-12-25 18:48:08,790,898,933,883,865,-3.62,-9.03,1.25,-0.05,0.04,-0.04
2024-12-25 18:48:08,790,899,938,882,865,-3.72,-9.12,1.13,-0.03,0.03,0.00
2024-12-25 18:48:08,788,899,938,882,864,-3.73,-9.00,1.22,-0.05,0.02,-0.01
2024-12-25 18:48:09,791,897,932,880,866,-3.72,-9.09,1.22,-0.02,0.04,0.00
2024-12-25 18:48:09,789,898,936,882,865,-3.69,-9.04,1.24,-0.07,0.03,0.00
2024-12-25 18:48:09,790,897,935,883,865,-3.77,-9.06,1.23,-0.05,0.02,-0.01
2024-12-25 18:48:09,788,897,932,881,864,-3.67,-9.05,1.19,-0.02,0.05,-0.01
2024-12-25 18:48:09,789,897,935,882,864,-3.63,-9.05,1.23,-0.03,0.02,-0.01
2024-12-25 18:48:10,789,896,934,884,864,-3.71,-9.04,1.25,-0.04,0.01,-0.00
2024-12-25 18:48:10,790,896,934,882,863,-3.63,-9.00,1.18,-0.06,0.02,-0.00
2024-12-25 18:48:10,790,897,935,881,865,-3.74,-8.97,1.28,-0.02,0.03,0.00
2024-12-25 18:48:10,790,897,936,879,864,-3.67,-9.06,1.19,-0.05,0.00,-0.02
2024-12-25 18:48:10,789,895,935,881,862,-3.62,-9.02,1.17,-0.04,0.02,-0.02
2024-12-25 18:48:10,789,896,934,881,865,-3.73,-9.07,1.27,-0.05,0.01,-0.04
2024-12-25 18:48:11,789,897,934,882,862,-3.71,-9.01,1.21,-0.03,0.01,-0.01
2024-12-25 18:48:11,789,896,935,881,864,-3.69,-9.04,1.21,-0.03,0.03,-0.02
2024-12-25 18:48:11,791,895,937,882,863,-3.63,-8.99,1.28,-0.05,0.03,-0.02
2024-12-25 18:48:11,787,893,934,883,862,-3.68,-9.11,1.15,-0.04,0.04,0.01
2024-12-25 18:48:11,790,897,936,880,862,-3.65,-9.06,1.14,-0.09,0.02,0.02
2024-12-25 18:48:12,789,898,934,879,863,-3.76,-8.87,1.12,-0.05,0.00,-0.03
2024-12-25 18:48:12,790,895,933,880,862,-3.89,-9.13,1.31,-0.04,0.04,-0.02
2024-12-25 18:48:12,788,893,935,879,863,-3.75,-8.93,1.12,-0.05,0.05,-0.02
2024-12-25 18:48:12,790,896,932,881,864,-3.74,-8.97,1.11,-0.03,0.04,-0.00
2024-12-25 18:48:12,787,894,932,879,862,-3.66,-9.07,1.11,-0.00,0.04,-0.02
2024-12-25 18:48:13,788,896,935,881,862,-3.72,-9.05,1.11,-0.04,0.12,0.01
2024-12-25 18:48:13,790,895,933,879,863,-3.57,-8.95,1.15,-0.06,0.04,-0.02
2024-12-25 18:48:13,790,894,936,879,861,-3.66,-9.02,1.14,-0.03,0.01,-0.01
2024-12-25 18:48:13,787,894,935,881,862,-3.71,-9.10,1.22,-0.01,0.02,-0.03
2024-12-25 18:48:13,791,896,932,879,864,-3.52,-9.04,1.14,-0.02,-0.01,-0.01
2024-12-25 18:48:13,788,894,934,880,863,-3.78,-9.11,1.28,-0.05,0.03,-0.03
2024-12-25 18:48:14,790,897,934,880,864,-3.65,-9.00,1.20,-0.05,0.04,-0.01
2024-12-25 18:48:14,789,896,932,881,862,-3.73,-9.28,1.32,-0.06,0.06,0.06
2024-12-25 18:48:14,787,892,935,877,860,-3.56,-8.97,1.13,-0.09,0.03,-0.01
2024-12-25 18:48:14,788,896,935,879,864,-3.78,-9.02,0.91,-0.04,0.03,-0.00
2024-12-25 18:48:14,791,894,933,879,864,-3.68,-9.03,1.04,-0.03,0.03,-0.03
2024-12-25 18:48:15,788,895,931,876,862,-3.80,-9.03,1.03,-0.04,0.04,-0.01
2024-12-25 18:48:15,790,895,935,879,863,-3.78,-8.95,1.09,-0.07,0.01,-0.00
2024-12-25 18:48:15,789,893,932,880,861,-3.82,-9.03,1.03,-0.03,0.01,-0.01
2024-12-25 18:48:15,790,894,931,879,860,-3.68,-8.98,0.99,-0.03,0.01,-0.01
2024-12-25 18:48:15,791,896,936,882,864,-3.76,-9.07,0.94,-0.07,-0.01,-0.03
2024-12-25 18:48:16,786,896,932,878,861,-3.81,-9.00,1.13,-0.06,0.02,0.06
2024-12-25 18:48:16,790,894,935,879,861,-3.85,-8.71,1.02,-0.05,-0.01,-0.05
2024-12-25 18:48:16,789,895,935,880,861,-3.95,-9.08,1.14,-0.00,-0.00,-0.03
2024-12-25 18:48:16,789,894,934,879,863,-3.80,-8.95,1.18,-0.08,0.05,-0.03
2024-12-25 18:48:16,791,896,936,879,865,-3.82,-8.96,1.19,-0.02,0.01,0.01
2024-12-25 18:48:16,789,895,934,878,862,-3.94,-8.93,1.13,-0.05,0.06,-0.03
2024-12-25 18:48:17,790,896,932,879,861,-3.58,-9.02,1.22,-0.03,0.02,0.01
2024-12-25 18:48:17,790,896,934,879,862,-3.81,-9.00,1.14,-0.03,0.02,-0.03
2024-12-25 18:48:17,789,894,934,879,860,-3.85,-9.02,1.14,-0.04,0.03,-0.01
2024-12-25 18:48:17,789,894,934,879,861,-3.72,-8.97,1.13,-0.04,0.02,-0.01
2024-12-25 18:48:17,789,896,934,878,863,-3.57,-9.09,1.00,-0.03,0.04,-0.02
2024-12-25 18:48:18,787,892,934,879,861,-3.83,-9.02,1.07,-0.09,0.04,-0.02
2024-12-25 18:48:18,789,895,934,877,860,-3.86,-8.95,1.08,-0.05,0.02,0.02
2024-12-25 18:48:18,791,894,933,881,862,-3.75,-9.01,1.06,-0.05,0.03,-0.00
2024-12-25 18:48:18,790,894,932,878,860,-3.72,-8.97,1.13,-0.04,0.04,-0.01
2024-12-25 18:48:18,791,896,933,877,860,-3.82,-8.97,1.12,-0.06,0.02,-0.03
2024-12-25 18:48:19,789,893,932,879,860,-3.77,-9.01,1.10,-0.02,0.01,-0.01
2024-12-25 18:48:19,789,891,932,877,860,-3.82,-9.00,1.03,-0.05,0.03,-0.01
2024-12-25 18:48:19,789,892,932,879,861,-3.70,-8.97,1.07,-0.04,0.03,-0.02
2024-12-25 18:48:19,790,895,934,879,862,-3.85,-9.00,1.04,-0.04,0.06,0.01
2024-12-25 18:48:19,786,892,931,876,859,-3.76,-9.02,1.09,-0.00,0.06,-0.03
2024-12-25 18:48:19,788,894,933,877,861,-3.69,-9.00,0.99,-0.02,0.01,-0.03
2024-12-25 18:48:20,791,894,934,879,861,-3.70,-8.88,0.76,-0.05,-0.00,-0.04
2024-12-25 18:48:20,789,893,933,877,860,-3.82,-9.07,1.02,-0.01,0.04,-0.05
2024-12-25 18:48:20,790,893,935,878,861,-3.82,-9.00,1.09,-0.04,0.03,-0.02
2024-12-25 18:48:20,789,892,931,879,861,-3.54,-8.98,0.98,-0.02,0.05,-0.01
2024-12-25 18:48:20,789,895,932,879,860,-3.67,-9.16,1.07,-0.03,0.04,-0.02
2024-12-25 18:48:21,789,892,934,878,860,-3.60,-9.05,1.06,-0.04,0.03,0.02
2024-12-25 18:48:21,788,893,931,877,859,-3.69,-9.00,0.92,-0.08,0.03,-0.02
2024-12-25 18:48:21,787,896,932,878,860,-3.75,-9.03,0.96,-0.05,0.04,0.00
2024-12-25 18:48:21,791,895,932,877,859,-3.61,-9.10,0.95,-0.04,0.01,-0.01
2024-12-25 18:48:21,789,891,933,876,861,-3.61,-9.07,0.99,-0.06,0.03,0.01
2024-12-25 18:48:22,790,894,933,878,861,-3.79,-9.00,0.83,-0.08,0.03,0.02
2024-12-25 18:48:22,787,894,934,878,861,-3.66,-8.89,0.79,-0.03,-0.02,-0.01
2024-12-25 18:48:22,788,894,929,877,861,-3.66,-9.07,1.11,-0.00,0.01,-0.03
2024-12-25 18:48:22,789,894,932,879,860,-3.78,-9.00,1.00,0.00,0.06,-0.02
2024-12-25 18:48:22,791,893,932,879,861,-3.85,-9.19,0.97,-0.05,0.06,-0.03
2024-12-25 18:48:22,789,892,933,878,860,-3.56,-9.00,0.97,-0.04,-0.01,0.04
2024-12-25 18:48:23,790,893,933,877,859,-3.71,-9.08,1.03,-0.05,0.03,-0.05
2024-12-25 18:48:23,788,893,933,876,859,-3.66,-9.06,0.85,-0.01,-0.01,0.03
2024-12-25 18:48:23,789,894,933,875,860,-3.70,-9.04,0.99,-0.10,0.03,-0.04
2024-12-25 18:48:23,789,893,932,878,862,-3.73,-8.91,0.94,-0.05,0.03,-0.03
2024-12-25 18:48:23,789,895,933,878,860,-3.79,-9.07,0.89,-0.04,0.02,0.01
2024-12-25 18:48:24,788,892,929,876,860,-3.70,-8.98,0.89,-0.03,0.01,-0.04
2024-12-25 18:48:24,790,892,931,875,859,-3.73,-9.11,1.05,-0.03,0.03,-0.00
2024-12-25 18:48:24,788,894,932,876,862,-3.61,-9.05,0.92,-0.09,0.05,-0.01
2024-12-25 18:48:24,786,893,932,877,858,-3.73,-9.05,1.04,-0.02,0.02,-0.03
2024-12-25 18:48:24,789,893,933,876,860,-3.72,-9.10,0.92,-0.04,0.05,0.03
2024-12-25 18:48:25,790,894,931,877,861,-3.59,-9.02,0.83,-0.05,0.02,-0.01
2024-12-25 18:48:25,788,893,932,876,861,-3.63,-9.12,1.11,-0.04,0.03,-0.02
2024-12-25 18:48:25,790,893,932,877,860,-3.77,-9.05,1.11,-0.02,0.03,-0.01
2024-12-25 18:48:25,789,892,931,879,860,-3.69,-8.98,1.01,-0.06,0.04,-0.03
2024-12-25 18:48:25,790,893,933,876,860,-3.60,-9.06,1.04,0.01,0.03,0.02
2024-12-25 18:48:25,789,893,933,877,860,-3.75,-9.20,0.91,-0.11,0.10,-0.09
2024-12-25 18:48:26,791,892,933,877,860,-3.54,-8.94,0.90,-0.09,0.03,0.04
2024-12-25 18:48:26,789,893,930,876,860,-3.77,-8.94,0.85,-0.03,0.04,0.01
2024-12-25 18:48:26,789,891,930,879,860,-3.92,-8.83,0.96,-0.05,0.20,0.03
2024-12-25 18:48:26,790,892,932,878,861,-4.86,-8.48,0.57,0.02,0.90,0.19
2024-12-25 18:48:26,788,894,931,878,859,-3.79,-9.11,-0.11,0.08,0.82,0.17
2024-12-25 18:48:27,788,894,932,875,860,-3.69,-8.84,-0.67,0.17,0.43,0.00
2024-12-25 18:48:27,791,893,934,876,860,-3.95,-9.18,-0.37,0.11,0.00,-0.22
2024-12-25 18:48:27,793,893,932,877,860,-3.64,-9.03,-0.11,-0.04,-0.00,-0.02
2024-12-25 18:48:27,790,894,932,876,861,-3.68,-8.94,-0.31,0.00,-0.10,-0.03
2024-12-25 18:48:27,794,893,934,879,861,-3.72,-9.00,0.31,-0.03,-0.03,-0.05
2024-12-25 18:48:28,788,894,933,876,859,-3.86,-9.37,0.17,-0.00,0.04,-0.18
2024-12-25 18:48:28,781,905,928,879,851,-3.37,-9.60,1.65,0.48,0.37,0.11
2024-12-25 18:48:28,778,911,933,878,853,-4.14,-9.26,0.66,-0.06,-0.12,0.31
2024-12-25 18:48:28,785,902,932,879,858,-3.90,-8.66,0.28,-0.01,-0.24,0.52
2024-12-25 18:48:28,787,902,933,883,864,-4.56,-8.69,0.82,-0.06,-0.02,-0.09
2024-12-25 18:48:28,786,903,934,886,868,-4.67,-8.39,0.68,-0.15,-0.06,-0.00
2024-12-25 18:48:29,790,901,931,885,867,-4.47,-8.57,0.64,-0.02,0.00,-0.00
2024-12-25 18:48:29,791,901,935,887,867,-4.43,-8.54,0.65,-0.07,-0.00,-0.05
2024-12-25 18:48:29,787,901,934,884,867,-4.51,-8.53,0.71,-0.07,0.02,0.01
2024-12-25 18:48:29,790,900,933,885,865,-4.40,-8.73,0.55,-0.04,0.06,-0.03
2024-12-25 18:48:29,790,901,933,884,865,-4.39,-8.65,0.62,-0.05,-0.04,-0.02
2024-12-25 18:48:30,789,903,930,884,865,-4.32,-8.60,0.68,-0.11,0.01,-0.02
2024-12-25 18:48:30,790,886,926,873,855,-4.34,-8.50,0.38,-0.15,0.22,0.03
2024-12-25 18:48:30,785,871,910,855,837,-4.82,-8.83,0.08,-0.37,-0.31,-0.02
2024-12-25 18:48:30,789,878,925,863,852,-4.44,-8.65,-0.21,-0.11,0.00,-0.00
2024-12-25 18:48:30,788,882,926,866,853,-4.37,-8.78,-0.06,-0.03,0.02,-0.04
2024-12-25 18:48:31,789,882,928,869,855,-4.37,-8.76,-0.16,-0.04,-0.06,-0.03
2024-12-25 18:48:31,790,881,924,868,857,-4.56,-8.66,-0.23,-0.17,-0.07,-0.03
2024-12-25 18:48:31,791,882,927,867,854,-4.28,-8.66,-0.08,0.02,-0.02,0.01
2024-12-25 18:48:31,788,881,930,872,855,-4.20,-8.77,0.42,0.21,-0.06,-0.13
2024-12-25 18:48:31,786,899,930,878,856,-4.21,-8.94,0.22,0.15,0.02,0.06
2024-12-25 18:48:31,789,900,935,879,861,-4.36,-8.91,0.31,0.22,0.13,0.04
2024-12-25 18:48:32,789,899,936,881,860,-4.46,-8.41,0.50,0.15,-0.01,0.01
2024-12-25 18:48:32,788,900,937,880,861,-4.60,-8.60,0.82,-0.06,-0.16,0.04
2024-12-25 18:48:32,791,898,936,880,862,-4.40,-8.64,0.76,-0.11,0.04,-0.05
2024-12-25 18:48:32,790,899,937,881,861,-4.18,-8.61,0.44,-0.28,-0.01,-0.06
2024-12-25 18:48:32,791,894,936,879,861,-4.46,-8.68,0.12,-0.17,-0.11,-0.08
2024-12-25 18:48:33,791,895,933,877,862,-4.36,-8.74,0.25,-0.02,-0.00,-0.12
2024-12-25 18:48:33,790,896,935,877,860,-4.17,-8.68,0.14,-0.03,0.03,-0.02
2024-12-25 18:48:33,790,894,934,880,860,-4.09,-8.83,0.18,-0.00,0.04,-0.06
2024-12-25 18:48:33,791,894,936,880,860,-3.96,-8.98,0.22,-0.03,0.07,-0.01
2024-12-25 18:48:33,790,894,932,878,860,-3.96,-8.88,0.17,-0.03,0.03,-0.03
2024-12-25 18:48:34,790,895,935,879,861,-3.79,-8.99,0.33,-0.03,-0.00,-0.07
2024-12-25 18:48:34,789,895,933,879,860,-4.14,-8.85,0.15,-0.04,0.00,-0.00
2024-12-25 18:48:34,788,892,933,876,860,-3.87,-9.07,0.38,-0.04,0.04,-0.02
2024-12-25 18:48:34,793,894,935,878,861,-3.83,-8.98,0.14,-0.03,-0.04,0.01
2024-12-25 18:48:34,789,892,934,877,860,-3.94,-8.77,0.46,-0.05,-0.03,-0.04
2024-12-25 18:48:34,789,894,933,878,860,-3.86,-8.82,0.44,-0.01,0.03,-0.00
2024-12-25 18:48:35,790,893,932,879,859,-4.06,-9.08,0.57,-0.03,0.02,-0.02
2024-12-25 18:48:35,787,894,933,880,859,-3.98,-8.87,0.33,0.01,-0.02,0.04
2024-12-25 18:48:35,789,895,936,876,860,-3.82,-8.89,0.56,-0.08,-0.01,-0.03
2024-12-25 18:48:35,789,894,936,877,858,-3.99,-8.92,0.78,-0.02,-0.01,-0.03
2024-12-25 18:48:35,790,892,933,876,859,-4.04,-9.07,0.75,-0.02,0.06,0.08
2024-12-25 18:48:36,789,894,935,877,860,-4.00,-8.85,0.59,-0.09,0.00,0.02
2024-12-25 18:48:36,789,895,934,875,858,-4.03,-8.64,0.56,-0.01,-0.02,-0.01
2024-12-25 18:48:36,789,892,932,876,858,-4.27,-8.92,0.74,-0.02,0.01,-0.02
2024-12-25 18:48:36,791,893,935,877,859,-4.09,-8.78,0.77,-0.02,0.03,-0.01
2024-12-25 18:48:36,789,893,934,877,859,-4.00,-8.90,0.68,-0.02,0.03,-0.02
2024-12-25 18:48:37,789,895,935,878,859,-4.11,-8.87,0.69,-0.02,-0.01,-0.02
2024-12-25 18:48:37,789,894,930,877,859,-4.00,-8.78,0.69,-0.05,0.02,-0.01
2024-12-25 18:48:37,791,893,932,876,858,-3.96,-8.88,0.78,-0.04,0.02,-0.05
2024-12-25 18:48:37,790,895,933,879,862,-3.94,-8.87,0.70,-0.08,0.06,-0.02
2024-12-25 18:48:37,792,895,933,878,859,-3.95,-8.78,0.87,-0.07,0.00,-0.01
2024-12-25 18:48:37,790,895,933,876,858,-4.02,-8.92,0.89,0.02,0.05,-0.01
2024-12-25 18:48:38,790,894,936,879,859,-3.89,-8.95,0.79,-0.02,0.01,-0.03
2024-12-25 18:48:38,790,893,932,875,859,-4.08,-8.87,0.77,-0.05,0.03,-0.01
2024-12-25 18:48:38,789,893,931,877,859,-3.93,-8.94,0.87,0.00,0.01,-0.02
2024-12-25 18:48:38,789,893,935,877,860,-3.92,-8.90,0.84,-0.06,0.03,-0.02
2024-12-25 18:48:38,788,893,932,878,858,-4.04,-8.85,0.86,-0.03,0.02,-0.02
2024-12-25 18:48:39,790,894,933,875,859,-3.87,-8.96,0.94,-0.04,0.02,-0.00
2024-12-25 18:48:39,790,895,934,877,859,-3.97,-8.88,0.83,-0.03,0.02,-0.02
2024-12-25 18:48:39,790,892,935,877,858,-3.89,-8.93,0.85,-0.01,0.01,-0.01
2024-12-25 18:48:39,789,892,931,876,857,-4.09,-8.89,1.00,-0.08,0.01,-0.01
2024-12-25 18:48:39,790,893,933,877,859,-3.90,-8.87,0.79,-0.02,0.03,-0.00
2024-12-25 18:48:40,788,892,931,874,858,-4.02,-8.95,0.84,-0.03,0.03,0.02
2024-12-25 18:48:40,789,894,934,877,858,-4.07,-8.86,0.99,-0.08,0.03,-0.02
2024-12-25 18:48:40,790,895,934,877,859,-4.16,-8.90,0.81,-0.05,0.08,-0.01
2024-12-25 18:48:40,787,892,931,878,856,-3.79,-8.86,0.73,-0.06,0.12,-0.03
2024-12-25 18:48:40,788,892,932,876,858,-3.97,-8.97,0.62,-0.03,0.10,-0.01
2024-12-25 18:48:40,789,893,933,876,858,-3.96,-8.93,0.68,-0.05,0.04,-0.01
2024-12-25 18:48:41,791,894,931,878,860,-3.90,-8.95,0.76,-0.03,0.03,-0.02
2024-12-25 18:48:41,790,893,933,876,858,-3.88,-8.89,0.62,-0.04,0.01,-0.00
2024-12-25 18:48:41,790,894,933,875,860,-3.84,-8.94,0.72,-0.06,0.01,-0.04
2024-12-25 18:48:41,789,893,933,876,858,-4.04,-8.92,0.92,-0.05,0.04,-0.02
2024-12-25 18:48:41,790,894,933,876,860,-3.95,-8.80,0.83,-0.03,-0.01,-0.02
2024-12-25 18:48:42,789,894,930,875,858,-3.90,-9.00,0.79,-0.03,0.05,-0.03
2024-12-25 18:48:42,789,893,936,875,857,-3.82,-8.97,0.63,-0.05,0.02,-0.03
2024-12-25 18:48:42,790,893,935,874,858,-3.90,-8.98,0.57,0.00,0.00,0.01
2024-12-25 18:48:42,790,893,931,876,858,-3.89,-8.94,0.74,-0.07,0.01,-0.01
2024-12-25 18:48:42,789,890,934,877,860,-3.99,-8.86,0.61,-0.05,0.01,0.00
2024-12-25 18:48:43,789,894,931,876,859,-3.96,-8.91,0.65,-0.06,0.02,-0.01
2024-12-25 18:48:43,791,894,932,874,858,-3.90,-8.93,0.54,-0.02,0.05,-0.02
2024-12-25 18:48:43,790,892,932,877,857,-3.98,-8.98,0.62,-0.05,0.01,-0.01
2024-12-25 18:48:43,790,894,933,877,859,-3.96,-8.89,0.56,-0.05,0.03,-0.04
2024-12-25 18:48:43,787,891,931,875,859,-3.89,-9.00,0.54,-0.02,0.05,-0.02
2024-12-25 18:48:43,790,893,934,875,857,-3.90,-8.95,0.58,-0.04,0.02,-0.02
2024-12-25 18:48:44,790,894,934,877,860,-3.87,-8.98,0.52,-0.02,0.01,-0.02
2024-12-25 18:48:44,791,892,932,875,858,-3.86,-8.94,0.34,-0.08,0.01,-0.01
2024-12-25 18:48:44,790,892,932,876,858,-3.81,-8.93,0.52,-0.06,0.01,-0.01
2024-12-25 18:48:44,790,893,932,880,861,-3.81,-8.98,0.69,-0.02,0.02,-0.01
2024-12-25 18:48:44,789,890,932,876,858,-3.73,-8.97,0.54,-0.03,0.03,-0.00
2024-12-25 18:48:45,787,892,931,875,858,-3.83,-8.91,0.64,-0.04,0.04,-0.00
2024-12-25 18:48:45,789,893,929,875,860,-3.86,-8.91,0.64,0.00,0.01,-0.03
2024-12-25 18:48:45,788,894,929,876,857,-4.09,-9.19,0.93,0.01,0.09,0.03
2024-12-25 18:48:45,789,891,931,877,857,-3.67,-8.77,0.34,-0.07,0.01,-0.02
2024-12-25 18:48:45,789,893,930,875,859,-3.92,-9.10,0.91,0.01,0.03,-0.02
2024-12-25 18:48:46,788,893,932,875,857,-3.83,-8.92,0.62,-0.06,0.03,0.01
2024-12-25 18:48:46,789,889,929,875,859,-3.82,-9.05,0.78,-0.04,0.03,-0.01
2024-12-25 18:48:46,788,894,932,875,858,-3.82,-8.94,0.72,-0.04,0.05,-0.02
2024-12-25 18:48:46,789,892,934,877,860,-3.73,-9.00,0.83,-0.05,0.04,-0.02
2024-12-25 18:48:46,788,890,932,875,858,-3.84,-8.97,0.73,-0.03,0.00,0.01
2024-12-25 18:48:46,789,891,931,876,859,-3.90,-8.92,0.71,-0.04,0.02,-0.03
2024-12-25 18:48:47,790,893,931,877,859,-3.79,-9.00,0.76,-0.05,0.03,-0.03
2024-12-25 18:48:47,787,893,931,875,859,-3.80,-9.00,0.73,-0.02,0.01,-0.02
2024-12-25 18:48:47,789,893,931,877,857,-3.76,-8.99,0.67,-0.02,0.01,-0.01
2024-12-25 18:48:47,790,892,934,876,858,-3.71,-8.98,0.83,-0.03,0.02,-0.03
2024-12-25 18:48:47,789,891,930,874,858,-3.76,-9.04,0.79,-0.04,0.01,-0.02
2024-12-25 18:48:48,789,892,930,875,858,-3.78,-9.03,0.78,-0.03,0.01,-0.04
2024-12-25 18:48:48,790,893,932,877,858,-3.65,-9.07,0.67,-0.08,-0.05,-0.05
2024-12-25 18:48:48,788,891,930,874,857,-3.79,-9.12,0.90,-0.07,0.01,-0.07
2024-12-25 18:48:48,790,892,931,874,857,-3.74,-9.02,0.58,-0.04,0.03,0.01
2024-12-25 18:48:48,789,892,932,876,857,-3.40,-9.17,0.85,-0.01,-0.03,-0.04
2024-12-25 18:48:49,788,891,932,875,857,-3.53,-9.24,0.81,-0.07,-0.03,-0.08
2024-12-25 18:48:49,791,894,934,877,860,-3.45,-9.11,0.67,-0.10,-0.01,-0.07
2024-12-25 18:48:49,790,891,930,876,857,-3.51,-9.21,0.69,-0.04,0.06,0.00
2024-12-25 18:48:49,790,891,930,877,857,-3.28,-9.13,0.62,-0.04,0.03,-0.05
2024-12-25 18:48:49,790,894,930,877,859,-3.45,-9.25,0.79,-0.05,0.00,-0.02
2024-12-25 18:48:49,789,890,930,877,856,-3.32,-9.09,0.82,-0.02,0.01,0.02
2024-12-25 18:48:50,787,891,933,876,858,-3.34,-9.27,0.75,-0.03,0.04,-0.05
2024-12-25 18:48:50,791,891,934,874,857,-3.37,-9.23,0.84,0.01,-0.05,0.01
2024-12-25 18:48:50,789,892,931,876,857,-3.48,-9.15,0.90,-0.01,-0.02,0.01
2024-12-25 18:48:50,788,891,930,875,860,-3.40,-9.17,0.83,-0.02,0.01,-0.01
2024-12-25 18:48:50,790,892,930,876,858,-3.36,-9.17,1.10,-0.04,0.04,-0.01
2024-12-25 18:48:51,789,891,931,874,858,-3.48,-9.19,1.03,-0.01,0.03,-0.01
2024-12-25 18:48:51,791,892,930,874,859,-3.53,-9.13,0.59,-0.15,0.09,-0.01
2024-12-25 18:48:51,789,891,934,876,859,-3.28,-9.13,0.68,0.01,-0.01,-0.04
2024-12-25 18:48:51,788,891,931,874,859,-3.55,-9.15,0.95,-0.01,0.02,-0.02
2024-12-25 18:48:51,791,890,931,877,858,-3.41,-9.18,1.03,-0.04,-0.01,0.01
2024-12-25 18:48:52,791,894,933,874,858,-3.53,-9.24,0.93,-0.06,0.08,0.00
2024-12-25 18:48:52,789,893,933,876,857,-3.47,-9.11,0.83,-0.07,0.04,-0.00
2024-12-25 18:48:52,788,892,932,874,859,-3.57,-9.17,0.58,-0.05,0.01,0.02
2024-12-25 18:48:52,789,894,932,876,859,-3.43,-8.97,0.60,-0.06,0.01,0.03
2024-12-25 18:48:52,788,894,930,876,857,-3.69,-8.98,0.68,-0.07,0.00,-0.03
2024-12-25 18:48:52,790,892,933,873,858,-3.71,-9.03,0.74,-0.03,0.03,0.03
2024-12-25 18:48:53,791,893,933,875,856,-3.77,-9.04,0.59,-0.11,-0.01,-0.00
2024-12-25 18:48:53,790,891,934,874,856,-3.58,-9.00,0.60,-0.01,0.03,-0.02
2024-12-25 18:48:53,786,890,932,874,856,-3.64,-9.10,0.58,-0.02,0.04,-0.00
2024-12-25 18:48:53,788,891,932,876,860,-3.61,-9.05,0.72,-0.02,-0.02,-0.03
2024-12-25 18:48:53,788,892,932,874,858,-3.70,-9.06,0.48,-0.04,0.02,-0.01
2024-12-25 18:48:54,790,890,931,874,857,-3.67,-9.07,0.69,-0.02,0.02,-0.01
2024-12-25 18:48:54,790,892,932,876,858,-3.65,-9.07,0.75,-0.05,0.04,-0.01
2024-12-25 18:48:54,790,891,932,873,856,-3.72,-9.09,0.68,-0.02,0.06,-0.01
2024-12-25 18:48:54,788,890,930,874,858,-3.66,-8.98,0.64,-0.04,0.01,-0.01
2024-12-25 18:48:54,791,893,931,875,858,-3.68,-9.11,0.78,-0.03,0.05,-0.04
2024-12-25 18:48:55,788,892,932,876,856,-3.55,-9.04,0.64,-0.02,0.04,-0.03
2024-12-25 18:48:55,790,890,931,876,857,-3.57,-9.10,0.78,-0.04,0.02,-0.01
2024-12-25 18:48:55,791,892,930,876,859,-3.60,-9.11,0.78,-0.03,0.04,-0.03
2024-12-25 18:48:55,789,889,931,872,858,-3.60,-9.09,0.66,-0.05,0.04,-0.03
2024-12-25 18:48:55,787,891,932,874,856,-3.48,-9.19,0.71,-0.03,0.04,-0.01
2024-12-25 18:48:55,789,891,930,877,859,-3.65,-9.16,0.65,-0.06,0.02,-0.01
2024-12-25 18:48:56,788,891,932,873,857,-3.67,-9.19,0.76,-0.04,0.03,0.01
2024-12-25 18:48:56,788,891,933,874,856,-3.46,-9.12,0.62,-0.07,0.02,0.02
2024-12-25 18:48:56,791,893,932,875,856,-3.69,-9.00,0.65,-0.07,0.02,-0.01
2024-12-25 18:48:56,787,890,930,877,857,-3.56,-9.09,0.70,-0.01,0.03,-0.01
2024-12-25 18:48:56,790,892,928,874,857,-3.53,-9.05,0.53,-0.04,0.01,-0.03
2024-12-25 18:48:57,789,892,930,874,856,-3.62,-9.14,0.78,-0.04,0.00,-0.02
2024-12-25 18:48:57,789,892,932,875,856,-3.62,-9.15,0.72,0.00,0.04,0.00
2024-12-25 18:48:57,790,891,932,875,856,-3.45,-9.11,0.62,-0.02,0.02,-0.03
2024-12-25 18:48:57,790,892,931,874,858,-3.66,-9.13,0.81,-0.03,0.01,-0.02
2024-12-25 18:48:57,790,892,933,876,858,-3.48,-9.13,0.75,-0.04,0.04,-0.01
2024-12-25 18:48:58,788,891,931,876,857,-3.58,-9.12,0.78,-0.04,0.03,-0.03
2024-12-25 18:48:58,787,892,932,878,858,-3.59,-9.13,0.73,-0.04,0.02,-0.00
2024-12-25 18:48:58,789,892,932,876,857,-3.56,-9.14,0.75,-0.05,0.04,-0.01
2024-12-25 18:48:58,788,891,928,872,859,-3.45,-9.12,0.71,-0.04,0.02,-0.01
2024-12-25 18:48:58,791,891,932,876,857,-3.57,-9.10,0.79,-0.06,0.03,-0.02
2024-12-25 18:48:58,790,892,932,876,858,-3.54,-9.21,0.81,-0.04,0.03,0.02
2024-12-25 18:48:59,788,891,929,876,856,-3.51,-9.07,0.73,-0.05,0.02,0.01
2024-12-25 18:48:59,789,891,929,874,858,-3.53,-9.10,0.75,-0.06,0.03,-0.01
2024-12-25 18:48:59,791,891,933,874,858,-3.54,-9.07,0.70,-0.05,-0.01,-0.01
2024-12-25 18:48:59,790,890,930,876,856,-3.55,-9.03,0.74,-0.06,0.02,0.01
2024-12-25 18:48:59,790,891,932,874,857,-3.61,-9.09,0.70,-0.02,0.03,-0.02
2024-12-25 18:49:00,788,891,931,875,858,-3.51,-9.10,0.73,-0.05,0.03,-0.01
2024-12-25 18:49:00,787,890,930,876,857,-3.59,-9.12,0.71,-0.03,0.03,-0.01
2024-12-25 18:49:00,788,891,931,875,857,-3.48,-9.12,0.71,-0.07,0.03,-0.02
2024-12-25 18:49:00,788,891,932,874,857,-3.45,-9.07,0.68,-0.04,0.03,-0.03
2024-12-25 18:49:00,791,891,931,874,858,-3.51,-9.07,0.72,-0.02,0.02,-0.02
2024-12-25 18:49:01,789,892,929,872,856,-3.56,-9.15,0.65,-0.05,0.01,-0.02
2024-12-25 18:49:01,790,891,930,874,856,-3.53,-9.17,0.70,-0.01,0.02,-0.03
2024-12-25 18:49:01,789,891,929,874,858,-3.53,-9.17,0.74,-0.04,0.03,-0.01
2024-12-25 18:49:01,789,889,929,873,855,-3.56,-9.13,0.69,-0.03,0.02,-0.02
2024-12-25 18:49:01,788,891,930,873,856,-3.45,-9.13,0.67,-0.04,0.02,-0.01
2024-12-25 18:49:01,789,889,932,875,860,-3.56,-9.16,0.74,-0.04,0.02,-0.01
2024-12-25 18:49:02,787,892,929,875,857,-3.52,-9.15,0.67,-0.08,0.01,0.00
2024-12-25 18:49:02,788,889,932,875,858,-3.53,-9.15,0.66,-0.04,0.01,-0.00
2024-12-25 18:49:02,789,891,930,876,856,-3.54,-9.08,0.66,-0.02,0.00,0.00
2024-12-25 18:49:02,791,890,931,874,856,-3.60,-9.06,0.67,-0.02,0.03,-0.01
2024-12-25 18:49:02,790,890,932,875,858,-3.63,-9.14,0.63,-0.00,0.03,-0.03
2024-12-25 18:49:03,791,891,929,875,857,-3.63,-9.20,0.61,-0.06,0.02,-0.00
2024-12-25 18:49:03,788,891,930,875,857,-3.54,-9.08,0.57,-0.02,0.01,-0.02
2024-12-25 18:49:03,789,891,932,873,856,-3.52,-9.13,0.72,-0.03,0.05,-0.03
2024-12-25 18:49:03,789,890,931,874,857,-3.51,-9.13,0.62,0.01,0.03,-0.02
2024-12-25 18:49:03,789,892,927,876,858,-3.58,-9.12,0.71,-0.08,0.02,-0.01
2024-12-25 18:49:04,787,890,934,875,855,-3.51,-9.00,0.70,-0.01,0.05,-0.04
2024-12-25 18:49:04,791,892,932,876,858,-3.50,-9.21,0.77,-0.04,0.03,-0.02
2024-12-25 18:49:04,788,890,931,874,856,-3.56,-9.09,0.79,-0.05,0.06,-0.02
2024-12-25 18:49:04,788,891,930,872,855,-3.26,-9.12,0.67,-0.00,0.08,-0.01
2024-12-25 18:49:04,790,890,931,874,858,-3.49,-9.20,0.82,-0.08,-0.03,-0.00
2024-12-25 18:49:04,790,891,928,874,857,-3.60,-9.00,0.61,-0.05,0.04,-0.00
2024-12-25 18:49:05,789,890,929,877,857,-3.35,-9.22,0.66,-0.02,0.06,-0.04
2024-12-25 18:49:05,788,891,931,875,856,-3.31,-8.99,0.47,-0.09,0.01,0.03
2024-12-25 18:49:05,789,889,932,875,857,-3.45,-9.25,1.02,-0.00,-0.00,-0.01
2024-12-25 18:49:05,788,891,930,875,857,-3.52,-9.05,0.69,-0.07,0.02,0.01
2024-12-25 18:49:05,789,890,931,874,857,-3.51,-9.14,0.83,-0.03,0.00,0.00
2024-12-25 18:49:06,790,892,931,876,858,-3.67,-9.07,0.76,-0.04,-0.01,0.01
2024-12-25 18:49:06,788,889,930,873,857,-3.57,-9.10,0.90,-0.01,0.01,0.01
2024-12-25 18:49:06,791,891,931,873,856,-3.59,-9.07,0.82,-0.02,0.04,-0.01
2024-12-25 18:49:06,791,890,933,877,856,-3.53,-9.14,0.82,-0.03,0.05,-0.03
2024-12-25 18:49:06,789,891,931,876,856,-3.62,-9.07,0.77,-0.05,0.02,-0.02
2024-12-25 18:49:07,788,891,930,874,858,-3.49,-9.06,0.80,-0.02,0.02,-0.01
2024-12-25 18:49:07,790,890,931,872,856,-3.53,-9.11,0.89,-0.02,0.02,-0.01
2024-12-25 18:49:07,789,891,930,873,856,-3.42,-9.25,0.72,-0.02,0.06,-0.04
2024-12-25 18:49:07,788,890,930,875,855,-3.39,-9.11,0.74,-0.06,0.02,-0.02
2024-12-25 18:49:07,790,892,930,875,857,-3.51,-9.19,0.88,-0.03,0.02,-0.01
2024-12-25 18:49:07,790,891,928,873,854,-3.45,-9.11,0.74,-0.03,0.03,-0.01
2024-12-25 18:49:08,790,888,930,874,857,-3.49,-9.18,0.80,-0.03,0.03,-0.01
2024-12-25 18:49:08,790,892,933,876,859,-3.40,-9.16,0.80,-0.04,0.00,-0.00
2024-12-25 18:49:08,788,890,929,874,856,-3.42,-9.12,0.72,-0.05,0.02,-0.00
2024-12-25 18:49:08,789,890,929,874,856,-3.51,-9.10,0.72,-0.04,0.03,-0.02
2024-12-25 18:49:08,791,890,933,876,859,-3.55,-9.12,0.78,-0.04,0.01,0.01
2024-12-25 18:49:09,787,891,931,873,856,-3.43,-9.21,0.82,0.01,0.01,0.03
2024-12-25 18:49:09,788,891,930,874,853,-3.81,-9.03,0.84,-0.01,0.08,0.01
2024-12-25 18:49:09,789,890,929,874,857,-3.50,-9.05,0.73,-0.05,0.03,-0.06
2024-12-25 18:49:09,789,889,930,873,857,-3.57,-9.18,0.64,-0.05,0.03,0.00
2024-12-25 18:49:09,789,890,934,874,858,-3.62,-9.17,0.77,-0.04,0.02,-0.02
2024-12-25 18:49:10,788,889,926,873,856,-3.44,-9.11,0.68,-0.02,0.05,-0.03
2024-12-25 18:49:10,790,891,930,873,857,-3.34,-9.22,0.64,-0.04,0.08,-0.03
2024-12-25 18:49:10,789,890,931,876,854,-3.50,-9.12,0.58,-0.03,0.05,-0.03
2024-12-25 18:49:10,788,890,930,874,857,-3.47,-9.11,0.67,-0.05,-0.01,-0.00
2024-12-25 18:49:10,790,892,929,873,856,-3.45,-9.17,0.57,-0.00,0.02,-0.02
2024-12-25 18:49:10,791,890,931,872,858,-3.45,-9.12,0.58,-0.04,0.04,-0.03
2024-12-25 18:49:11,790,890,929,875,856,-3.54,-9.16,0.69,-0.00,0.03,0.02
2024-12-25 18:49:11,789,890,930,875,856,-3.51,-9.07,0.72,-0.05,0.00,0.01
2024-12-25 18:49:11,793,889,929,877,857,-3.60,-9.13,0.81,-0.05,0.02,0.01
2024-12-25 18:49:11,789,892,929,873,855,-3.54,-9.12,0.78,-0.04,0.03,-0.00
2024-12-25 18:49:11,788,890,930,874,855,-3.50,-9.11,0.71,-0.04,0.03,0.00
2024-12-25 18:49:12,789,889,930,874,856,-3.53,-9.14,0.79,-0.03,0.01,-0.00
2024-12-25 18:49:12,790,891,930,875,855,-3.60,-9.07,0.83,-0.05,0.03,-0.05
2024-12-25 18:49:12,788,888,929,875,856,-3.61,-9.28,0.88,-0.03,0.05,0.00
2024-12-25 18:49:12,788,891,930,875,856,-3.36,-9.08,0.62,-0.04,0.04,0.00
2024-12-25 18:49:12,789,889,930,874,856,-3.48,-9.05,0.90,-0.07,-0.00,-0.04
2024-12-25 18:49:13,790,889,931,873,855,-3.34,-9.37,0.84,0.08,0.07,0.00
2024-12-25 18:49:13,786,890,928,873,856,-3.15,-9.47,0.74,-0.05,0.02,0.14
2024-12-25 18:49:13,788,890,930,876,855,-3.55,-8.73,0.71,-0.08,-0.13,0.04
2024-12-25 18:49:13,791,892,929,877,856,-3.84,-9.05,1.02,0.06,-0.02,-0.00
2024-12-25 18:49:13,789,888,927,873,855,-3.75,-9.15,1.08,0.01,0.03,-0.01
2024-12-25 18:49:13,787,891,930,872,856,-3.63,-8.87,0.78,-0.11,0.03,-0.01
2024-12-25 18:49:14,789,891,932,875,856,-3.63,-9.13,0.86,-0.00,0.06,-0.05
2024-12-25 18:49:14,788,890,931,874,856,-3.64,-9.06,0.85,-0.05,-0.02,-0.02
2024-12-25 18:49:14,790,890,930,873,854,-3.61,-9.05,1.00,-0.04,0.01,-0.01
2024-12-25 18:49:14,789,892,931,874,856,-3.82,-9.02,0.96,-0.03,0.03,-0.01
2024-12-25 18:49:14,790,888,928,873,855,-3.63,-9.24,0.94,-0.05,0.08,-0.03
2024-12-25 18:49:15,788,889,927,872,857,-3.47,-9.06,0.80,-0.07,0.01,0.03
2024-12-25 18:49:15,790,891,930,874,857,-3.64,-8.96,0.85,-0.07,0.01,0.00
2024-12-25 18:49:15,791,890,928,873,856,-3.70,-9.12,0.85,-0.01,0.01,-0.04
2024-12-25 18:49:15,788,890,929,875,856,-3.68,-9.11,0.94,-0.05,0.05,-0.02
2024-12-25 18:49:15,789,888,931,873,856,-3.50,-9.10,0.90,-0.03,0.03,-0.01
2024-12-25 18:49:16,790,892,931,875,856,-3.60,-9.08,0.89,-0.03,-0.02,0.04
2024-12-25 18:49:16,790,890,931,871,855,-3.56,-9.01,1.00,-0.04,0.07,-0.04
2024-12-25 18:49:16,790,892,930,869,855,-3.42,-9.15,0.92,-0.00,0.03,-0.00
2024-12-25 18:49:16,790,891,931,874,856,-3.67,-9.04,0.88,-0.04,0.05,-0.03
2024-12-25 18:49:16,789,890,928,871,857,-3.77,-9.18,1.15,-0.03,0.01,0.05
2024-12-25 18:49:16,787,890,931,874,857,-3.29,-8.81,0.84,-0.06,0.11,-0.04
2024-12-25 18:49:17,790,891,931,876,856,-3.66,-9.36,1.22,-0.01,-0.00,-0.00
2024-12-25 18:49:17,788,890,932,871,855,-3.65,-8.86,0.89,-0.03,0.05,0.02
2024-12-25 18:49:17,788,889,929,871,856,-3.65,-9.16,0.91,-0.02,0.02,-0.03
2024-12-25 18:49:17,788,889,931,875,857,-3.66,-9.06,1.06,-0.04,0.03,-0.00
2024-12-25 18:49:17,787,888,930,872,855,-3.67,-9.01,0.72,-0.06,0.01,-0.01
2024-12-25 18:49:18,787,890,930,872,857,-3.79,-9.19,1.20,0.06,0.02,0.05
2024-12-25 18:49:18,790,890,930,873,856,-3.44,-8.95,1.10,-0.12,0.07,-0.04
2024-12-25 18:49:18,788,888,931,877,855,-3.68,-9.16,1.05,0.02,0.03,-0.03
2024-12-25 18:49:18,788,891,930,873,855,-3.56,-9.12,0.98,-0.04,0.03,-0.01
2024-12-25 18:49:18,790,890,928,874,857,-3.55,-9.08,0.99,-0.04,0.03,-0.03
2024-12-25 18:49:19,792,890,933,875,856,-3.53,-9.08,1.16,-0.03,0.02,-0.03
2024-12-25 18:49:19,789,890,930,872,857,-3.51,-9.13,1.08,-0.01,0.04,-0.02
2024-12-25 18:49:19,787,888,928,873,855,-3.47,-9.26,1.20,-0.10,0.05,0.03
2024-12-25 18:49:19,789,891,930,873,856,-3.49,-8.94,0.82,-0.04,0.01,-0.01
2024-12-25 18:49:19,791,887,926,873,855,-3.55,-9.10,1.05,-0.11,0.01,0.01
2024-12-25 18:49:19,790,888,929,874,855,-3.72,-9.05,0.98,0.01,0.02,-0.00
2024-12-25 18:49:20,791,892,929,874,853,-3.51,-9.07,0.93,-0.07,0.03,-0.02
2024-12-25 18:49:20,789,890,930,874,857,-3.62,-8.97,0.81,-0.06,0.02,-0.03
2024-12-25 18:49:20,791,890,927,874,854,-3.66,-9.08,0.75,-0.01,0.06,-0.00
2024-12-25 18:49:20,790,890,930,873,857,-3.56,-9.14,1.00,-0.05,0.01,-0.02
2024-12-25 18:49:20,789,890,930,876,856,-3.59,-9.05,0.98,-0.06,0.04,-0.03
2024-12-25 18:49:21,788,889,927,873,856,-3.67,-9.07,0.79,-0.06,0.04,-0.07
2024-12-25 18:49:21,789,888,930,872,854,-3.13,-9.25,0.93,0.08,0.12,-0.02
2024-12-25 18:49:21,789,890,929,875,856,-3.64,-9.08,0.55,-0.09,0.06,-0.13
2024-12-25 18:49:21,788,888,928,872,856,-3.26,-9.42,1.02,0.03,0.09,0.01
2024-12-25 18:49:21,789,889,928,872,856,-3.09,-9.17,0.54,-0.04,-0.00,-0.01
2024-12-25 18:49:21,789,888,930,873,855,-3.39,-9.37,1.27,-0.12,0.02,0.02
2024-12-25 18:49:22,790,889,933,875,857,-3.13,-8.97,0.43,-0.01,0.06,-0.02
2024-12-25 18:49:22,789,890,929,872,855,-3.36,-9.36,1.02,-0.07,0.07,-0.06
2024-12-25 18:49:22,789,889,931,872,855,-3.10,-9.21,0.70,0.01,0.06,0.04
2024-12-25 18:49:22,789,888,931,873,855,-3.21,-9.17,0.75,-0.04,-0.05,-0.02
2024-12-25 18:49:22,788,889,929,872,856,-3.35,-9.24,1.02,0.00,-0.00,0.01
2024-12-25 18:49:23,789,887,928,871,854,-2.49,-9.45,0.32,-0.02,0.06,-0.05
2024-12-25 18:49:23,789,888,929,875,855,-3.41,-9.20,1.22,-0.01,-0.13,0.04
2024-12-25 18:49:23,789,890,932,872,854,-3.77,-8.97,1.14,-0.02,-0.05,0.03
2024-12-25 18:49:23,789,890,930,871,855,-3.30,-9.08,1.41,0.02,0.00,0.04
2024-12-25 18:49:23,789,888,926,872,857,-3.46,-9.18,1.57,0.03,0.06,0.01
2024-12-25 18:49:24,791,889,932,873,856,-3.69,-9.03,1.34,-0.16,0.13,-0.07
2024-12-25 18:49:24,789,889,930,873,856,-3.23,-9.14,0.72,0.03,0.03,-0.04
2024-12-25 18:49:24,788,889,929,874,856,-3.69,-9.01,0.79,-0.12,-0.00,-0.03
2024-12-25 18:49:24,788,890,932,874,855,-3.23,-9.16,1.02,-0.02,0.12,-0.01
2024-12-25 18:49:24,790,892,933,873,854,-3.34,-9.31,0.89,-0.03,0.07,-0.06
2024-12-25 18:49:24,789,890,929,873,854,-3.27,-9.29,0.86,-0.06,0.02,0.01
2024-12-25 18:49:25,789,888,931,873,854,-3.55,-9.15,0.51,-0.07,-0.00,0.04
2024-12-25 18:49:25,788,891,927,873,854,-3.06,-8.95,0.82,-0.09,0.04,-0.01
2024-12-25 18:49:25,790,889,929,874,855,-3.51,-9.29,0.71,0.01,0.03,0.03
2024-12-25 18:49:25,789,888,929,873,855,-3.22,-9.11,0.80,-0.05,0.07,-0.01
2024-12-25 18:49:25,788,890,931,874,856,-3.54,-9.28,0.70,0.06,0.03,0.02
2024-12-25 18:49:26,791,891,929,873,855,-3.31,-9.24,0.72,-0.05,0.00,-0.03
2024-12-25 18:49:26,790,892,929,874,856,-3.31,-9.10,0.82,-0.06,0.03,-0.05
2024-12-25 18:49:26,790,887,929,870,855,-3.42,-9.03,0.53,-0.07,0.03,-0.03
2024-12-25 18:49:26,790,892,931,872,857,-3.42,-9.15,0.70,-0.01,0.03,-0.03
2024-12-25 18:49:26,792,890,930,876,856,-3.50,-9.20,0.66,-0.03,0.02,-0.04
2024-12-25 18:49:27,789,888,928,873,856,-3.46,-9.11,0.51,-0.05,0.00,-0.01
2024-12-25 18:49:27,792,889,930,873,857,-3.52,-9.26,0.86,-0.07,0.03,0.00
2024-12-25 18:49:27,789,889,931,872,856,-3.25,-9.05,0.64,-0.04,0.05,-0.02
2024-12-25 18:49:27,790,888,929,873,854,-3.41,-9.22,0.80,-0.03,0.02,-0.05
2024-12-25 18:49:27,788,888,930,872,855,-3.07,-9.25,0.62,-0.08,0.02,-0.03
2024-12-25 18:49:27,789,890,929,874,855,-3.26,-9.17,0.54,-0.07,0.03,-0.03
2024-12-25 18:49:28,790,888,931,873,854,-3.24,-9.26,0.76,-0.04,0.03,-0.02
2024-12-25 18:49:28,790,890,931,874,855,-3.22,-9.24,0.68,0.00,0.01,0.00
2024-12-25 18:49:28,790,889,928,873,856,-3.21,-9.27,0.56,-0.02,0.03,-0.03
2024-12-25 18:49:28,793,892,932,874,857,-3.18,-9.31,0.64,-0.08,0.03,-0.10
2024-12-25 18:49:28,790,890,928,871,856,-3.16,-9.31,0.55,0.01,-0.01,0.02
2024-12-25 18:49:29,788,891,930,872,854,-3.12,-9.31,0.67,-0.02,0.02,-0.02
2024-12-25 18:49:29,790,889,927,875,855,-3.30,-9.28,0.83,-0.05,-0.01,0.05
2024-12-25 18:49:29,790,890,928,874,854,-3.12,-9.14,1.09,-0.02,-0.01,0.03
2024-12-25 18:49:29,789,887,930,874,856,-3.17,-9.24,0.91,-0.02,0.06,-0.05
2024-12-25 18:49:29,790,889,931,874,853,-3.19,-9.26,0.97,-0.01,0.02,-0.03
2024-12-25 18:49:30,790,890,928,873,854,-3.34,-9.31,0.98,-0.03,0.04,-0.02
2024-12-25 18:49:30,789,889,931,872,855,-3.23,-9.16,0.82,-0.01,0.04,-0.02
2024-12-25 18:49:30,791,889,931,874,856,-3.19,-9.32,1.04,-0.03,0.03,-0.00
2024-12-25 18:49:30,791,887,929,871,855,-3.36,-9.39,1.05,-0.05,0.06,0.03
2024-12-25 18:49:30,789,889,928,871,855,-3.20,-9.06,0.74,-0.09,0.06,-0.02
2024-12-25 18:49:30,789,888,928,874,854,-3.22,-9.27,0.75,-0.02,0.02,-0.01
2024-12-25 18:49:31,792,891,932,874,854,-3.27,-9.20,0.88,-0.04,0.00,0.01
2024-12-25 18:49:31,788,890,928,874,856,-3.30,-9.14,0.78,-0.06,0.02,-0.03
2024-12-25 18:49:31,788,891,929,874,855,-3.23,-9.24,0.84,-0.04,0.03,-0.03
2024-12-25 18:49:31,790,889,929,873,855,-3.22,-9.30,0.75,-0.05,0.01,0.00
2024-12-25 18:49:31,790,889,931,874,854,-3.56,-8.88,0.61,-0.16,-0.00,0.01
2024-12-25 18:49:32,789,888,926,872,855,-3.24,-9.15,1.02,0.02,0.07,-0.08
2024-12-25 18:49:32,790,889,928,874,855,-3.20,-9.44,0.86,0.02,0.04,-0.02
2024-12-25 18:49:32,790,890,931,873,858,-3.05,-9.17,0.70,-0.06,0.02,-0.02
2024-12-25 18:49:32,787,890,928,874,853,-3.13,-9.27,0.84,-0.01,0.02,-0.04
2024-12-25 18:49:32,790,889,929,871,854,-3.20,-9.25,0.81,-0.01,0.03,-0.01
2024-12-25 18:49:33,788,890,929,874,856,-3.16,-9.34,0.89,-0.01,0.03,-0.01
2024-12-25 18:49:33,790,889,929,873,854,-3.10,-9.27,0.86,-0.05,0.02,-0.01
2024-12-25 18:49:33,787,889,931,872,857,-3.21,-9.33,0.90,-0.05,0.03,-0.00
2024-12-25 18:49:33,790,888,930,874,854,-3.23,-9.28,0.77,-0.04,0.03,-0.02
2024-12-25 18:49:33,791,890,927,872,856,-3.04,-9.22,0.85,-0.07,-0.01,-0.07
2024-12-25 18:49:33,790,888,928,873,856,-3.44,-9.29,0.77,-0.02,0.06,-0.07
2024-12-25 18:49:34,789,891,931,873,854,-2.42,-9.46,0.61,0.06,0.12,-0.01
2024-12-25 18:49:34,787,889,931,871,855,-2.92,-9.33,0.79,-0.12,-0.16,0.01
2024-12-25 18:49:34,790,892,931,872,854,-3.17,-9.24,1.11,0.07,-0.07,0.09
2024-12-25 18:49:34,789,889,929,873,854,-3.29,-9.19,1.21,-0.07,-0.05,-0.03
2024-12-25 18:49:34,789,888,931,873,854,-2.88,-9.35,1.47,0.02,0.04,-0.02
2024-12-25 18:49:35,788,888,928,871,853,-3.11,-9.16,1.16,-0.05,-0.06,-0.03
2024-12-25 18:49:35,789,889,928,875,854,-3.33,-9.26,1.53,-0.04,0.03,-0.03
2024-12-25 18:49:35,791,888,929,873,857,-3.11,-9.18,1.30,-0.02,0.06,-0.01
2024-12-25 18:49:35,787,888,928,871,854,-3.18,-9.24,1.23,-0.06,0.01,-0.07
2024-12-25 18:49:35,788,892,929,873,856,-3.18,-9.25,1.14,-0.09,0.03,-0.01
2024-12-25 18:49:36,788,892,930,873,855,-3.22,-9.07,0.88,-0.12,-0.05,0.01
2024-12-25 18:49:36,787,887,928,871,854,-3.17,-9.33,1.53,-0.06,0.01,-0.00
2024-12-25 18:49:36,789,888,929,871,856,-3.08,-9.18,1.33,-0.05,0.07,-0.03
2024-12-25 18:49:36,790,888,929,872,855,-3.20,-9.30,1.36,-0.05,0.01,-0.03
2024-12-25 18:49:36,788,887,926,873,854,-3.09,-9.23,1.23,-0.05,0.03,0.00
2024-12-25 18:49:36,789,890,927,871,855,-3.17,-9.23,1.39,-0.03,-0.00,-0.01
2024-12-25 18:49:37,793,891,932,873,855,-3.15,-9.28,1.29,-0.04,0.04,-0.03
2024-12-25 18:49:37,788,888,927,872,855,-3.09,-9.30,1.31,-0.02,0.01,-0.02
2024-12-25 18:49:37,791,890,929,871,856,-3.15,-9.24,1.25,-0.04,0.02,-0.03
2024-12-25 18:49:37,791,888,932,875,856,-3.11,-9.30,1.37,-0.01,0.02,-0.02
2024-12-25 18:49:37,789,887,930,873,855,-3.17,-9.31,1.30,-0.04,0.03,-0.01
2024-12-25 18:49:38,789,888,928,871,855,-3.06,-9.24,1.28,-0.03,0.02,-0.01
2024-12-25 18:49:38,789,890,933,874,855,-3.02,-9.24,1.40,-0.03,0.01,-0.02
2024-12-25 18:49:38,788,887,929,872,854,-3.11,-9.28,1.35,-0.04,0.04,-0.01
2024-12-25 18:49:38,789,890,929,870,855,-3.01,-9.24,1.34,-0.04,0.02,-0.02
2024-12-25 18:49:38,789,889,929,874,856,-3.10,-9.32,1.41,-0.03,0.03,-0.00
2024-12-25 18:49:39,788,890,928,873,852,-3.05,-9.26,1.24,-0.03,0.02,0.01
2024-12-25 18:49:39,787,887,928,871,852,-3.15,-9.29,1.24,-0.06,0.01,-0.00
2024-12-25 18:49:39,791,887,927,872,855,-3.22,-9.21,1.33,-0.03,0.01,-0.00
2024-12-25 18:49:39,790,889,929,873,854,-3.11,-9.26,1.29,-0.03,0.02,-0.01
2024-12-25 18:49:39,789,889,926,870,854,-3.10,-9.26,1.30,-0.04,0.01,-0.01
2024-12-25 18:49:39,790,889,930,873,854,-3.20,-9.22,1.32,-0.03,0.01,-0.02
2024-12-25 18:49:40,789,889,926,872,856,-2.94,-9.26,1.23,-0.07,0.05,-0.08
2024-12-25 18:49:40,789,889,930,871,854,-3.28,-9.30,1.35,-0.01,0.04,-0.00
2024-12-25 18:49:40,790,890,930,872,853,-3.06,-9.22,1.38,0.01,0.01,-0.02
2024-12-25 18:49:40,789,890,930,873,856,-3.35,-9.51,1.50,0.08,0.04,0.06
2024-12-25 18:49:40,791,891,930,874,856,-2.98,-9.13,1.47,-0.05,0.02,-0.04
2024-12-25 18:49:41,789,890,928,872,857,-3.20,-9.28,1.36,-0.03,0.02,-0.01
2024-12-25 18:49:41,787,889,929,871,854,-3.25,-9.32,1.58,-0.05,0.01,-0.02
2024-12-25 18:49:41,789,890,930,873,855,-3.02,-9.35,1.30,-0.05,0.05,-0.09
2024-12-25 18:49:41,788,888,928,873,855,-3.14,-9.36,1.34,-0.06,0.03,0.02
2024-12-25 18:49:41,791,890,930,872,853,-3.02,-9.19,1.19,-0.04,0.03,-0.04
2024-12-25 18:49:42,790,889,928,875,855,-2.90,-9.35,1.54,0.01,0.02,-0.02
2024-12-25 18:49:42,789,889,929,874,856,-2.88,-9.30,1.49,-0.06,0.06,-0.03
2024-12-25 18:49:42,787,889,927,872,854,-2.88,-9.34,1.41,-0.01,0.01,0.01
2024-12-25 18:49:42,789,887,929,872,854,-3.03,-9.32,1.47,-0.06,0.00,-0.00
2024-12-25 18:49:42,791,890,929,875,853,-3.02,-9.30,1.63,-0.02,0.04,0.01
2024-12-25 18:49:42,789,889,932,871,856,-3.08,-9.39,1.53,-0.03,0.04,0.01
2024-12-25 18:49:43,789,890,928,870,852,-2.89,-9.20,1.38,-0.04,0.01,0.01
2024-12-25 18:49:43,788,889,931,872,854,-3.04,-9.28,1.42,-0.06,0.02,-0.07
2024-12-25 18:49:43,792,888,931,872,856,-2.98,-9.39,1.36,0.04,0.06,-0.00
2024-12-25 18:49:43,787,890,929,874,854,-2.85,-9.37,1.40,-0.06,-0.02,-0.04
2024-12-25 18:49:43,790,890,927,872,854,-3.00,-9.26,1.57,-0.04,0.06,-0.03
2024-12-25 18:49:44,790,888,931,871,854,-2.98,-9.40,1.49,-0.02,0.05,0.01
2024-12-25 18:49:44,788,888,930,872,852,-3.07,-9.31,1.42,-0.06,0.03,0.01
2024-12-25 18:49:44,790,889,928,869,854,-2.88,-9.26,1.50,-0.03,0.01,-0.01
2024-12-25 18:49:44,789,888,929,873,854,-3.02,-9.36,1.50,-0.01,0.03,-0.02
2024-12-25 18:49:44,790,889,929,872,855,-3.05,-9.33,1.47,-0.04,0.04,-0.01
2024-12-25 18:49:45,790,889,926,873,853,-2.94,-9.30,1.54,-0.03,0.03,-0.01
2024-12-25 18:49:45,788,887,928,872,855,-2.96,-9.30,1.54,-0.05,0.04,0.03
2024-12-25 18:49:45,790,891,927,873,857,-3.09,-9.22,1.57,0.01,0.02,-0.01
2024-12-25 18:49:45,789,889,926,872,855,-2.96,-9.25,1.52,0.02,0.01,-0.01
2024-12-25 18:49:45,789,889,928,872,853,-3.39,-9.51,1.66,-0.05,-0.01,-0.04
2024-12-25 18:49:45,788,888,928,873,855,-3.25,-8.88,1.48,-0.20,-0.03,-0.10
2024-12-25 18:49:46,787,888,928,872,855,-2.82,-9.78,1.69,0.05,0.10,-0.05
2024-12-25 18:49:46,788,889,927,871,853,-2.66,-9.11,1.36,-0.16,0.02,-0.00
2024-12-25 18:49:46,789,888,930,872,856,-2.62,-9.33,1.86,0.01,0.01,0.03
2024-12-25 18:49:46,792,889,930,873,856,-2.87,-9.46,1.25,-0.01,0.04,-0.02
2024-12-25 18:49:46,791,888,930,871,854,-2.81,-9.26,2.20,0.01,-0.03,0.12
2024-12-25 18:49:47,790,887,929,870,856,-3.20,-8.98,1.71,-0.04,-0.09,0.04
2024-12-25 18:49:47,789,890,928,872,855,-3.26,-9.29,2.22,0.04,0.04,0.04
2024-12-25 18:49:47,789,889,928,873,855,-3.37,-9.09,1.98,-0.10,0.02,-0.03
2024-12-25 18:49:47,790,888,929,874,853,-3.18,-9.13,1.86,0.03,0.07,-0.04
2024-12-25 18:49:47,788,889,928,871,854,-3.09,-9.34,1.91,-0.05,0.06,-0.01
2024-12-25 18:49:47,790,890,927,873,856,-3.30,-9.05,1.80,-0.10,0.09,-0.01
2024-12-25 18:49:48,788,890,928,875,855,-2.91,-9.34,1.72,0.08,0.11,-0.03
2024-12-25 18:49:48,789,888,929,871,854,-3.10,-9.31,1.55,-0.15,-0.05,-0.01
2024-12-25 18:49:48,790,889,932,871,855,-3.48,-9.11,1.82,-0.13,-0.04,0.05
2024-12-25 18:49:48,790,889,928,873,857,-3.48,-9.01,1.72,0.04,0.00,0.01
2024-12-25 18:49:48,788,890,931,871,854,-3.24,-9.14,1.69,0.05,0.04,-0.08
2024-12-25 18:49:49,789,889,927,870,856,-3.21,-9.18,2.26,-0.04,0.04,-0.02
2024-12-25 18:49:49,788,886,928,870,855,-3.17,-9.18,1.48,0.02,0.07,-0.00
2024-12-25 18:49:49,789,890,929,873,855,-3.07,-9.42,1.97,-0.11,0.08,-0.01
2024-12-25 18:49:49,789,886,930,870,855,-2.90,-8.89,1.74,-0.21,0.08,-0.01
2024-12-25 18:49:49,788,888,927,870,854,-3.26,-9.07,1.93,0.12,-0.10,-0.01
2024-12-25 18:49:50,788,890,928,874,855,-3.41,-9.46,2.33,-0.01,0.05,-0.03
2024-12-25 18:49:50,789,890,930,871,854,-3.31,-9.04,1.77,-0.06,0.06,0.02
2024-12-25 18:49:50,790,887,929,870,854,-3.18,-9.16,1.97,-0.03,-0.03,-0.00
2024-12-25 18:49:50,789,888,930,870,855,-3.30,-9.07,1.95,-0.07,0.19,-0.07
2024-12-25 18:49:50,791,888,927,872,855,-3.01,-9.22,2.03,-0.02,0.03,-0.09
2024-12-25 18:49:50,789,888,927,870,855,-3.04,-9.24,1.90,-0.01,0.04,-0.01
2024-12-25 18:49:51,787,889,927,873,855,-3.11,-9.28,1.73,-0.09,0.00,-0.06
2024-12-25 18:49:51,789,889,929,871,857,-3.20,-9.17,1.53,-0.00,0.01,-0.02
2024-12-25 18:49:51,791,887,928,871,854,-3.27,-9.31,2.08,-0.05,0.04,0.02
2024-12-25 18:49:51,789,889,927,873,854,-3.03,-9.21,1.93,0.01,0.09,-0.01
2024-12-25 18:49:51,789,889,931,871,855,-2.95,-9.26,1.92,-0.06,0.04,-0.03
2024-12-25 18:49:52,792,890,927,875,855,-3.05,-9.13,1.89,-0.02,0.00,-0.01
2024-12-25 18:49:52,786,887,928,871,856,-3.07,-9.30,1.96,-0.02,0.02,-0.02
2024-12-25 18:49:52,788,889,928,870,855,-3.09,-9.28,1.84,-0.03,0.05,-0.03
2024-12-25 18:49:52,790,889,928,875,853,-2.95,-9.18,1.78,-0.06,0.05,-0.04
2024-12-25 18:49:52,789,888,927,872,854,-2.92,-9.25,1.91,0.02,0.01,-0.03
2024-12-25 18:49:53,788,886,927,870,856,-3.14,-9.37,2.00,0.00,0.03,-0.02
2024-12-25 18:49:53,791,889,929,872,854,-2.92,-9.22,1.97,-0.03,0.06,-0.04
2024-12-25 18:49:53,789,890,931,873,854,-2.84,-9.61,2.11,-0.08,0.02,-0.01
2024-12-25 18:49:53,789,888,924,872,855,-2.76,-9.22,1.71,-0.32,-0.02,-0.02
2024-12-25 18:49:53,791,888,931,874,856,-3.18,-9.28,1.24,-0.30,0.03,-0.01
2024-12-25 18:49:53,789,887,927,872,854,-2.81,-9.07,0.81,0.02,0.11,-0.06
2024-12-25 18:49:54,788,886,928,872,853,-2.55,-9.80,1.06,0.05,0.05,-0.03
2024-12-25 18:49:54,789,889,927,872,854,-2.49,-9.24,1.08,-0.10,0.01,-0.03
2024-12-25 18:49:54,790,888,928,875,856,-2.77,-9.12,1.21,0.19,-0.07,-0.01
2024-12-25 18:49:54,788,888,928,871,854,-2.37,-9.82,2.35,0.09,-0.01,0.14
2024-12-25 18:49:54,790,889,929,871,854,-3.11,-9.06,1.53,-0.14,-0.14,-0.07
2024-12-25 18:49:55,789,889,928,871,855,-3.00,-9.60,1.88,-0.02,0.07,0.00
2024-12-25 18:49:55,789,888,929,873,855,-2.45,-9.11,1.36,-0.03,0.07,-0.07
2024-12-25 18:49:55,790,888,928,871,855,-3.00,-9.74,1.89,0.03,0.07,-0.01
2024-12-25 18:49:55,791,888,928,872,854,-2.46,-9.31,1.27,-0.11,-0.01,-0.21
2024-12-25 18:49:55,790,887,929,871,855,-2.33,-9.50,1.68,-0.04,0.08,-0.02
2024-12-25 18:49:56,788,887,929,872,854,-1.88,-9.60,1.41,0.07,0.03,0.06
2024-12-25 18:49:56,789,889,927,870,854,-2.78,-9.72,1.99,-0.08,-0.23,0.13
2024-12-25 18:49:56,789,887,930,871,855,-2.83,-9.72,1.09,0.00,0.17,0.30
2024-12-25 18:49:56,790,891,929,875,857,-3.48,-8.87,1.93,0.07,-0.05,-0.14
2024-12-25 18:49:56,789,887,926,871,854,-2.81,-9.45,1.30,-0.25,0.07,-0.07
2024-12-25 18:49:56,788,890,928,871,853,-3.27,-9.01,0.23,-0.33,-0.08,0.10
2024-12-25 18:49:57,790,892,928,873,855,-3.23,-9.48,0.76,0.14,0.13,-0.07
2024-12-25 18:49:57,789,889,926,872,854,-3.06,-9.38,1.13,-0.08,0.02,0.08
2024-12-25 18:49:57,786,888,927,869,853,-3.03,-9.15,1.36,-0.03,-0.02,0.01
2024-12-25 18:49:57,790,890,930,871,854,-3.08,-9.48,1.16,0.05,0.11,-0.04
2024-12-25 18:49:57,789,889,930,870,854,-3.08,-9.47,0.79,-0.10,-0.06,-0.17
2024-12-25 18:49:58,787,885,928,870,852,-3.27,-9.45,1.60,-0.07,0.00,0.07
2024-12-25 18:49:58,788,889,929,871,854,-3.02,-9.39,1.09,-0.02,0.01,-0.02
2024-12-25 18:49:58,789,887,929,872,857,-2.81,-9.46,0.96,0.03,-0.02,-0.08
2024-12-25 18:49:58,790,887,927,870,855,-3.24,-9.16,1.32,-0.11,0.04,0.03
2024-12-25 18:49:58,791,888,929,871,854,-3.19,-9.21,1.66,-0.00,0.10,-0.01
2024-12-25 18:49:59,790,890,930,873,854,-3.14,-9.10,1.13,-0.07,-0.04,-0.02
2024-12-25 18:49:59,789,890,928,871,853,-2.97,-9.22,1.39,0.01,-0.02,-0.01
