Timestamp,Flex1,Flex2,Flex3,Flex4,Flex5,AccelX,AccelY,AccelZ,GyroX,GyroY,GyroZ
2024-12-25 18:54:30,779,760,780,756,759,-2.68,0.98,10.28,0.01,-0.07,-0.05
2024-12-25 18:54:30,780,762,780,756,758,-2.52,0.52,10.20,0.03,0.03,-0.07
2024-12-25 18:54:30,780,762,782,756,759,-2.55,1.19,10.41,0.14,0.07,0.01
2024-12-25 18:54:30,780,762,781,756,758,-2.94,1.57,10.69,-0.08,0.12,0.11
2024-12-25 18:54:30,779,763,780,755,758,-2.52,0.63,9.38,-0.26,-0.08,-0.07
2024-12-25 18:54:30,780,763,781,757,759,-2.44,1.24,9.70,0.04,0.07,-0.04
2024-12-25 18:54:30,780,765,782,755,757,-2.97,1.12,10.45,-0.04,0.12,-0.10
2024-12-25 18:54:30,779,764,781,757,757,-2.38,1.00,9.81,-0.03,-0.07,0.01
2024-12-25 18:54:30,778,764,782,755,758,-2.74,1.17,10.70,-0.02,-0.04,0.08
2024-12-25 18:54:30,781,764,783,756,758,-2.33,1.05,9.91,-0.21,0.09,-0.05
2024-12-25 18:54:30,781,763,780,755,757,-2.91,1.32,10.46,0.08,0.27,0.00
2024-12-25 18:54:30,778,762,779,755,757,-2.68,0.88,9.46,0.02,0.02,0.02
2024-12-25 18:54:30,780,764,781,753,757,-2.80,1.21,10.24,0.06,0.09,-0.02
2024-12-25 18:54:30,780,762,783,754,758,-3.17,0.80,10.34,-0.34,0.08,-0.02
2024-12-25 18:54:30,779,762,782,755,759,-2.89,0.48,9.70,-0.12,0.00,0.05
2024-12-25 18:54:30,778,766,781,755,757,-3.77,0.84,12.30,-1.33,-0.27,-0.24
2024-12-25 18:54:30,780,766,784,759,756,-2.31,-4.25,8.50,-3.09,0.22,-0.68
2024-12-25 18:54:31,793,765,780,762,755,-2.55,-7.84,4.41,-1.41,1.32,-0.27
2024-12-25 18:54:31,800,759,779,761,757,-2.80,-9.07,3.42,-0.46,0.17,-0.22
2024-12-25 18:54:31,798,759,779,760,757,-2.46,-9.14,2.13,-0.62,0.31,-0.08
2024-12-25 18:54:31,798,759,780,760,756,-2.29,-9.28,1.07,-0.14,0.12,-0.11
2024-12-25 18:54:31,801,760,780,761,756,-2.36,-9.54,1.74,0.00,0.13,-0.15
2024-12-25 18:54:32,799,761,782,759,757,-2.20,-9.50,1.28,-0.15,0.01,-0.07
2024-12-25 18:54:32,797,759,778,760,757,-2.26,-9.49,1.31,-0.00,-0.01,-0.02
2024-12-25 18:54:32,800,761,781,759,756,-2.22,-9.72,1.44,-0.21,0.04,-0.09
2024-12-25 18:54:32,798,760,780,760,756,-2.24,-9.50,0.67,-0.09,0.02,0.02
2024-12-25 18:54:32,798,759,780,759,757,-2.17,-9.54,1.33,0.03,0.01,-0.01
2024-12-25 18:54:33,797,761,780,758,756,-2.20,-9.52,1.34,0.01,-0.08,-0.01
2024-12-25 18:54:33,798,760,783,759,757,-2.33,-9.58,1.38,-0.00,0.03,-0.03
2024-12-25 18:54:33,798,761,781,758,758,-2.07,-9.42,1.41,0.00,-0.04,-0.01
2024-12-25 18:54:33,796,761,783,757,756,-2.15,-9.70,1.53,-0.05,-0.02,-0.05
2024-12-25 18:54:33,796,762,783,758,757,-2.08,-9.53,1.26,-0.01,0.03,-0.11
2024-12-25 18:54:33,796,761,783,759,756,-2.02,-9.59,1.66,-0.05,0.09,0.02
2024-12-25 18:54:34,795,761,780,759,756,-1.98,-9.53,1.36,-0.02,0.01,-0.02
2024-12-25 18:54:34,796,762,782,759,757,-2.12,-9.67,1.63,0.00,0.03,-0.00
2024-12-25 18:54:34,794,764,781,759,759,-2.19,-9.60,1.47,-0.04,0.02,-0.00
2024-12-25 18:54:34,793,762,781,757,758,-1.99,-9.56,1.65,-0.00,0.03,-0.01
2024-12-25 18:54:34,796,762,782,759,757,-2.02,-9.58,1.63,-0.02,0.01,0.01
2024-12-25 18:54:35,793,763,782,758,757,-2.07,-9.60,1.52,-0.05,0.05,-0.04
2024-12-25 18:54:35,795,761,783,758,758,-1.96,-9.70,1.87,-0.04,0.06,0.01
2024-12-25 18:54:35,794,763,782,759,756,-2.21,-9.55,1.63,-0.09,0.05,-0.02
2024-12-25 18:54:35,794,763,782,757,757,-2.03,-9.46,1.58,-0.02,0.06,-0.04
2024-12-25 18:54:35,794,761,783,759,756,-2.05,-9.69,1.85,-0.02,0.05,-0.00
2024-12-25 18:54:36,796,761,784,759,755,-1.96,-9.48,1.59,-0.06,0.02,-0.00
2024-12-25 18:54:36,794,763,782,760,757,-2.14,-9.56,1.78,-0.00,0.03,-0.03
2024-12-25 18:54:36,793,762,784,758,758,-1.99,-9.63,1.77,-0.02,0.05,-0.03
2024-12-25 18:54:36,794,763,783,758,757,-1.96,-9.63,1.71,-0.07,0.01,0.02
2024-12-25 18:54:36,795,762,781,757,756,-2.09,-9.57,1.64,-0.13,0.15,-0.08
2024-12-25 18:54:36,796,762,783,759,758,-1.72,-9.62,1.63,-0.04,0.06,-0.06
2024-12-25 18:54:37,795,761,782,758,756,-1.84,-9.67,1.60,-0.05,-0.01,-0.03
2024-12-25 18:54:37,794,762,784,758,757,-1.83,-9.61,1.52,-0.04,0.02,-0.00
2024-12-25 18:54:37,795,762,782,758,756,-1.91,-9.57,1.46,-0.07,-0.00,-0.02
2024-12-25 18:54:37,794,761,782,758,757,-1.90,-9.71,1.63,-0.06,0.04,-0.02
2024-12-25 18:54:37,794,761,784,760,758,-1.93,-9.53,1.45,-0.07,0.03,-0.01
2024-12-25 18:54:38,796,762,782,757,756,-1.87,-9.69,1.50,-0.03,-0.02,0.02
2024-12-25 18:54:38,796,764,782,760,757,-1.89,-9.74,1.38,-0.08,0.05,-0.02
2024-12-25 18:54:38,794,761,782,758,756,-1.93,-9.62,1.35,-0.11,0.06,0.02
2024-12-25 18:54:38,794,762,782,759,758,-1.92,-9.53,1.18,-0.07,-0.02,0.01
2024-12-25 18:54:38,795,761,782,759,756,-1.92,-9.58,1.22,-0.02,0.01,-0.02
2024-12-25 18:54:39,794,761,784,757,756,-1.90,-9.75,1.32,-0.01,0.06,-0.04
2024-12-25 18:54:39,807,762,782,760,759,-1.95,-9.77,1.25,-0.05,0.06,0.06
2024-12-25 18:54:39,814,764,783,758,757,-2.04,-9.49,1.06,-0.12,-0.09,0.07
2024-12-25 18:54:39,816,763,783,760,757,-2.04,-9.61,1.06,-0.09,0.01,-0.00
2024-12-25 18:54:39,818,763,786,762,758,-2.28,-9.53,1.05,-0.04,-0.00,-0.00
2024-12-25 18:54:39,818,764,784,757,756,-2.10,-9.57,1.00,0.01,0.11,-0.04
2024-12-25 18:54:40,817,764,785,758,757,-2.28,-9.48,0.96,-0.14,0.05,-0.03
2024-12-25 18:54:40,816,764,784,759,758,-1.47,-9.69,0.46,-0.28,-0.12,-0.13
2024-12-25 18:54:40,814,764,787,760,759,-1.77,-9.79,-0.04,-0.11,0.06,0.14
2024-12-25 18:54:40,817,763,787,762,756,-2.11,-9.33,0.59,0.12,0.01,0.03
2024-12-25 18:54:40,817,763,786,761,758,-2.57,-9.72,0.82,0.09,-0.05,-0.09
2024-12-25 18:54:41,814,763,786,761,757,-2.07,-9.69,0.81,-0.10,0.07,-0.10
2024-12-25 18:54:41,821,764,789,758,758,-1.67,-9.59,0.76,-0.01,0.08,-0.08
2024-12-25 18:54:41,819,763,787,759,756,-1.80,-9.84,0.85,-0.00,0.21,0.03
2024-12-25 18:54:41,819,763,786,760,756,-1.64,-9.64,0.95,0.01,0.05,-0.07
2024-12-25 18:54:41,825,764,789,760,758,-2.00,-9.73,0.35,-0.05,0.04,0.10
2024-12-25 18:54:42,828,764,786,761,756,-1.81,-9.66,0.73,-0.06,0.07,-0.01
2024-12-25 18:54:42,831,764,786,761,757,-1.86,-9.69,0.40,-0.08,0.00,-0.01
2024-12-25 18:54:42,829,766,789,759,759,-1.79,-9.56,0.52,-0.07,0.01,-0.01
2024-12-25 18:54:42,826,767,787,759,756,-1.93,-9.67,0.50,-0.06,0.01,-0.02
2024-12-25 18:54:42,828,766,786,759,757,-1.89,-9.73,0.48,-0.00,0.03,0.04
2024-12-25 18:54:42,826,766,789,761,757,-1.99,-9.76,0.39,-0.10,0.11,-0.05
2024-12-25 18:54:43,825,765,787,758,757,-1.77,-9.71,0.31,-0.09,0.05,0.02
2024-12-25 18:54:43,826,767,787,761,757,-2.02,-9.65,0.20,-0.08,0.04,0.01
2024-12-25 18:54:43,824,766,789,760,756,-1.96,-9.42,0.45,-0.09,0.07,-0.06
2024-12-25 18:54:43,824,764,787,757,756,-1.86,-9.67,-0.00,-0.01,0.08,0.05
2024-12-25 18:54:43,825,765,787,760,757,-1.95,-9.58,0.06,-0.05,0.01,-0.05
2024-12-25 18:54:44,826,767,789,760,756,-1.95,-9.77,0.02,-0.02,0.04,0.01
2024-12-25 18:54:44,826,766,786,758,756,-1.95,-9.62,0.18,0.00,0.03,0.02
2024-12-25 18:54:44,824,767,787,759,757,-2.15,-9.71,0.05,-0.06,0.05,0.03
2024-12-25 18:54:44,824,768,789,760,756,-1.89,-9.62,0.15,-0.06,0.05,-0.00
2024-12-25 18:54:44,824,764,787,759,757,-1.86,-9.60,0.19,0.01,0.01,0.03
2024-12-25 18:54:44,823,764,789,760,756,-2.02,-9.71,0.23,-0.07,0.01,-0.05
2024-12-25 18:54:45,823,766,789,760,757,-2.07,-9.51,0.17,-0.03,0.03,0.01
2024-12-25 18:54:45,824,766,789,762,755,-2.12,-9.71,0.36,-0.05,0.05,-0.00
2024-12-25 18:54:45,824,765,787,760,758,-1.94,-9.46,0.17,-0.01,0.02,-0.01
2024-12-25 18:54:45,822,768,788,761,757,-2.00,-9.77,0.11,-0.01,0.00,0.02
2024-12-25 18:54:45,822,766,788,760,757,-2.08,-9.66,0.14,-0.10,-0.03,-0.10
2024-12-25 18:54:46,823,766,787,760,758,-1.96,-9.51,0.21,-0.06,-0.05,0.01
2024-12-25 18:54:46,825,768,790,760,756,-2.46,-9.63,0.17,-0.08,0.01,0.01
2024-12-25 18:54:46,822,766,787,760,756,-2.04,-9.49,0.43,-0.08,0.02,-0.02
2024-12-25 18:54:46,823,765,789,759,757,-2.04,-9.57,0.05,0.02,0.03,0.15
2024-12-25 18:54:46,821,766,789,760,758,-2.37,-9.58,0.18,-0.11,-0.01,-0.11
2024-12-25 18:54:47,820,766,789,760,757,-2.40,-9.71,0.08,-0.04,0.10,-0.02
2024-12-25 18:54:47,820,766,789,761,756,-2.14,-9.39,0.07,-0.05,0.05,-0.05
2024-12-25 18:54:47,821,765,789,759,757,-2.26,-9.68,0.24,0.04,0.07,-0.02
2024-12-25 18:54:47,821,765,790,760,757,-2.13,-9.71,0.18,-0.05,0.07,-0.01
2024-12-25 18:54:47,822,767,790,761,758,-1.98,-9.65,0.16,-0.11,0.04,-0.07
2024-12-25 18:54:47,820,765,788,761,756,-2.09,-9.58,0.06,-0.01,0.04,-0.05
2024-12-25 18:54:48,821,766,790,761,756,-1.68,-9.66,0.15,0.01,0.00,-0.08
2024-12-25 18:54:48,821,767,790,760,758,-1.84,-9.63,0.21,-0.06,0.04,-0.06
2024-12-25 18:54:48,820,766,788,760,758,-1.88,-9.62,0.12,-0.05,0.04,-0.02
2024-12-25 18:54:48,821,766,791,760,757,-1.87,-9.68,0.12,-0.03,0.04,-0.00
2024-12-25 18:54:48,820,765,791,759,756,-1.81,-9.62,0.19,-0.05,0.02,-0.02
2024-12-25 18:54:49,820,765,790,759,758,-1.87,-9.66,0.30,-0.04,0.03,-0.04
2024-12-25 18:54:49,821,767,790,760,757,-1.84,-9.63,0.14,-0.00,0.03,-0.00
2024-12-25 18:54:49,821,766,789,759,756,-1.82,-9.77,0.30,-0.05,0.04,-0.01
2024-12-25 18:54:49,822,765,789,761,756,-1.81,-9.67,0.28,-0.00,0.02,-0.01
2024-12-25 18:54:49,819,766,789,759,756,-1.80,-9.71,0.33,-0.02,0.02,-0.01
2024-12-25 18:54:50,821,766,790,759,757,-1.75,-9.71,0.25,-0.05,0.04,-0.05
2024-12-25 18:54:50,821,766,793,761,757,-1.74,-9.64,0.36,-0.04,0.02,-0.03
2024-12-25 18:54:50,818,766,792,760,756,-1.71,-9.69,0.23,-0.06,0.01,-0.01
2024-12-25 18:54:50,820,766,793,761,757,-1.70,-9.63,0.30,-0.04,0.04,-0.02
2024-12-25 18:54:50,819,766,793,760,758,-1.83,-9.73,0.18,-0.02,0.04,-0.01
2024-12-25 18:54:50,819,766,791,758,756,-1.71,-9.72,0.30,-0.04,0.03,0.00
2024-12-25 18:54:51,822,766,794,760,756,-1.76,-9.68,0.29,-0.05,0.03,-0.03
2024-12-25 18:54:51,820,766,792,762,757,-1.76,-9.74,0.27,-0.05,0.06,-0.03
2024-12-25 18:54:51,821,766,791,759,756,-1.64,-9.71,0.23,-0.05,0.03,0.00
2024-12-25 18:54:51,820,766,792,760,757,-1.67,-9.70,0.25,-0.04,0.02,-0.03
2024-12-25 18:54:51,827,767,792,761,757,-1.79,-9.69,0.25,-0.01,0.06,-0.02
2024-12-25 18:54:52,827,767,791,760,757,-1.58,-9.72,0.28,-0.06,0.03,-0.01
2024-12-25 18:54:52,831,767,793,761,756,-1.64,-9.68,0.22,-0.03,0.02,-0.03
2024-12-25 18:54:52,829,765,792,759,756,-1.62,-9.75,0.27,-0.02,0.03,-0.03
2024-12-25 18:54:52,829,767,793,759,756,-1.68,-9.73,0.17,-0.03,0.03,-0.01
2024-12-25 18:54:52,829,767,795,759,756,-1.69,-9.70,0.26,-0.05,0.02,-0.01
2024-12-25 18:54:53,828,766,792,760,756,-1.59,-9.69,0.26,-0.03,0.03,-0.02
2024-12-25 18:54:53,825,766,791,759,757,-1.64,-9.82,0.31,-0.03,0.03,-0.01
2024-12-25 18:54:53,824,766,792,760,756,-1.64,-9.58,0.20,-0.07,0.02,-0.02
2024-12-25 18:54:53,825,767,794,760,757,-1.61,-9.71,0.15,0.02,0.01,-0.05
2024-12-25 18:54:53,825,767,793,761,758,-1.72,-9.74,0.29,-0.02,0.02,-0.00
2024-12-25 18:54:53,825,766,792,759,757,-1.44,-9.70,0.25,-0.02,0.03,-0.03
2024-12-25 18:54:54,827,767,793,759,757,-1.66,-9.80,0.36,-0.03,0.05,-0.00
2024-12-25 18:54:54,826,767,795,760,757,-1.54,-9.75,0.50,-0.01,-0.00,-0.01
2024-12-25 18:54:54,825,769,793,760,756,-1.62,-9.76,0.36,-0.03,0.06,0.03
2024-12-25 18:54:54,824,768,792,759,756,-1.71,-9.73,0.60,-0.03,0.03,-0.00
2024-12-25 18:54:54,825,766,793,762,756,-1.68,-9.75,0.55,-0.02,0.02,-0.05
2024-12-25 18:54:55,824,766,792,759,756,-1.60,-9.71,0.49,-0.00,0.02,0.02
2024-12-25 18:54:55,826,767,793,760,757,-1.76,-9.82,0.50,-0.03,0.02,-0.00
2024-12-25 18:54:55,824,766,793,760,757,-1.65,-9.69,0.74,-0.03,0.00,0.02
2024-12-25 18:54:55,827,767,794,759,757,-1.69,-9.64,0.63,-0.00,-0.01,0.00
2024-12-25 18:54:55,825,767,794,761,757,-1.67,-9.73,0.75,-0.04,0.03,-0.05
2024-12-25 18:54:56,824,766,793,760,756,-1.72,-9.71,0.60,-0.00,0.01,-0.01
2024-12-25 18:54:56,825,767,791,760,758,-1.71,-9.79,0.65,-0.06,0.05,0.01
2024-12-25 18:54:56,824,768,794,761,758,-1.56,-9.68,0.64,-0.04,0.02,0.00
2024-12-25 18:54:56,824,767,793,760,757,-1.67,-9.75,0.74,-0.01,0.01,0.02
2024-12-25 18:54:56,825,769,794,761,756,-1.70,-9.76,0.61,-0.04,0.01,-0.01
2024-12-25 18:54:56,825,768,794,762,758,-1.64,-9.72,0.64,-0.05,0.03,-0.03
2024-12-25 18:54:57,826,768,794,760,757,-1.74,-9.68,0.66,-0.01,-0.01,-0.02
2024-12-25 18:54:57,825,767,794,758,758,-1.74,-9.77,0.66,-0.02,0.05,-0.01
2024-12-25 18:54:57,824,766,794,761,757,-1.68,-9.70,0.70,-0.01,0.02,0.00
2024-12-25 18:54:57,824,766,793,759,756,-1.65,-9.71,0.65,-0.02,0.02,-0.01
2024-12-25 18:54:57,824,767,794,759,757,-1.70,-9.77,0.64,-0.03,0.03,-0.00
2024-12-25 18:54:58,823,766,794,760,757,-1.64,-9.73,0.51,-0.00,0.00,-0.01
2024-12-25 18:54:58,825,767,795,759,756,-1.75,-9.71,0.68,-0.07,0.04,-0.03
2024-12-25 18:54:58,824,767,794,760,756,-1.70,-9.73,0.79,-0.03,0.05,-0.01
2024-12-25 18:54:58,825,766,793,761,758,-1.60,-9.74,0.60,0.00,0.02,-0.01
2024-12-25 18:54:58,824,767,793,760,757,-1.76,-9.75,0.61,-0.04,0.02,-0.02
2024-12-25 18:54:59,823,767,795,761,757,-1.64,-9.72,0.59,-0.06,0.03,-0.02
2024-12-25 18:54:59,824,768,796,758,755,-1.67,-9.73,0.64,-0.07,0.02,-0.02
2024-12-25 18:54:59,824,766,794,761,758,-1.77,-9.76,0.62,-0.04,-0.01,-0.02
2024-12-25 18:54:59,821,767,793,759,756,-1.60,-9.67,0.73,-0.02,0.02,0.01
2024-12-25 18:54:59,824,767,794,762,757,-1.74,-9.79,0.59,0.01,-0.00,-0.02
2024-12-25 18:54:59,827,767,795,760,758,-1.36,-9.80,0.66,-0.02,0.13,-0.06
2024-12-25 18:55:00,823,766,796,759,757,-1.93,-9.64,0.64,-0.08,-0.01,0.11
2024-12-25 18:55:00,823,767,793,761,757,-1.94,-9.50,0.66,-0.08,0.01,-0.05
2024-12-25 18:55:00,821,767,796,759,756,-1.92,-9.70,0.40,-0.04,0.05,-0.03
2024-12-25 18:55:00,823,767,793,759,756,-1.74,-9.69,0.50,-0.04,0.04,0.03
2024-12-25 18:55:00,822,768,796,761,757,-1.83,-9.63,0.54,-0.04,0.05,-0.00
2024-12-25 18:55:01,822,767,793,760,757,-1.83,-9.73,0.46,-0.02,0.02,-0.01
2024-12-25 18:55:01,822,768,793,760,758,-1.66,-9.56,0.81,-0.08,0.02,-0.06
2024-12-25 18:55:01,824,767,797,761,758,-1.83,-9.70,0.24,-0.03,0.03,-0.02
2024-12-25 18:55:01,825,767,795,759,756,-1.80,-9.69,0.71,-0.07,-0.02,0.02
2024-12-25 18:55:01,822,769,795,760,757,-1.38,-9.56,0.62,-0.02,0.05,-0.01
2024-12-25 18:55:02,822,767,795,760,757,-1.73,-9.68,0.59,-0.02,0.00,-0.03
2024-12-25 18:55:02,822,766,793,761,756,-1.85,-9.74,0.58,-0.04,0.04,0.00
2024-12-25 18:55:02,825,769,796,760,757,-1.58,-9.72,0.71,-0.03,-0.05,0.04
2024-12-25 18:55:02,822,768,795,760,756,-1.85,-9.71,0.72,-0.07,0.07,-0.02
2024-12-25 18:55:02,821,767,794,758,757,-1.76,-9.69,0.58,-0.07,0.05,-0.01
2024-12-25 18:55:02,821,767,795,762,757,-1.64,-9.69,0.60,-0.01,0.02,-0.02
2024-12-25 18:55:03,824,766,795,759,757,-1.78,-9.66,0.76,-0.02,0.03,-0.02
2024-12-25 18:55:03,823,768,796,758,758,-1.62,-9.70,0.65,-0.06,0.03,-0.05
2024-12-25 18:55:03,823,767,793,759,756,-1.71,-9.72,0.61,-0.03,0.04,-0.01
2024-12-25 18:55:03,821,766,795,758,758,-1.73,-9.79,0.75,-0.03,0.03,-0.02
2024-12-25 18:55:03,822,767,795,759,758,-1.65,-9.70,0.59,-0.05,0.04,-0.00
2024-12-25 18:55:04,823,766,794,758,758,-1.66,-9.72,0.62,-0.02,0.03,-0.00
2024-12-25 18:55:04,821,767,794,759,758,-1.74,-9.71,0.92,-0.01,0.02,0.02
2024-12-25 18:55:04,823,768,793,760,757,-1.88,-9.53,0.76,-0.09,0.08,-0.01
2024-12-25 18:55:04,825,768,795,759,758,-1.63,-9.61,0.45,-0.02,-0.03,0.02
2024-12-25 18:55:04,823,768,794,760,757,-1.74,-9.46,0.87,-0.14,0.12,-0.11
2024-12-25 18:55:05,823,767,794,760,756,-1.70,-9.72,0.64,-0.03,0.08,0.03
2024-12-25 18:55:05,825,767,794,760,757,-1.50,-9.76,0.45,-0.07,0.03,-0.07
2024-12-25 18:55:05,821,766,794,760,757,-1.72,-9.84,0.54,-0.07,0.04,0.05
2024-12-25 18:55:05,823,767,796,760,756,-1.75,-9.89,0.36,-0.08,0.02,-0.11
2024-12-25 18:55:05,824,767,796,759,757,-1.64,-9.60,0.24,-0.05,-0.01,-0.05
2024-12-25 18:55:05,823,768,796,762,756,-1.58,-9.86,0.37,0.04,0.08,0.02
2024-12-25 18:55:06,824,766,793,758,756,-1.56,-9.81,0.39,-0.07,0.00,-0.03
2024-12-25 18:55:06,831,767,794,761,757,-1.47,-9.66,0.40,-0.07,0.04,0.01
2024-12-25 18:55:06,838,768,795,762,756,-1.72,-9.75,0.36,-0.04,0.06,-0.01
2024-12-25 18:55:06,841,768,794,759,756,-1.59,-9.66,0.32,0.00,0.01,0.02
2024-12-25 18:55:06,844,768,794,761,756,-1.62,-9.71,0.26,-0.02,0.00,-0.03
2024-12-25 18:55:07,850,771,796,761,759,-1.69,-9.65,0.46,-0.07,0.14,0.02
2024-12-25 18:55:07,845,770,794,759,756,-1.71,-9.69,0.24,-0.04,0.03,0.01
2024-12-25 18:55:07,844,770,796,760,756,-1.65,-9.66,0.31,-0.09,0.00,-0.01
2024-12-25 18:55:07,850,775,804,761,756,-1.74,-9.64,0.20,-0.04,0.06,-0.02
2024-12-25 18:55:07,847,774,803,759,756,-1.54,-9.58,0.29,0.02,0.04,0.03
2024-12-25 18:55:08,847,774,802,762,757,-1.88,-9.71,0.12,-0.14,0.15,0.00
2024-12-25 18:55:08,846,776,800,761,757,-1.78,-9.69,0.02,-0.09,0.10,-0.02
2024-12-25 18:55:08,848,775,803,762,757,-1.70,-9.71,-0.10,-0.02,0.06,-0.01
2024-12-25 18:55:08,851,777,806,763,757,-1.61,-9.61,0.06,-0.04,-0.03,-0.00
2024-12-25 18:55:08,851,777,808,761,757,-1.62,-9.63,-0.00,0.00,0.01,-0.02
2024-12-25 18:55:08,850,776,806,763,757,-1.77,-9.73,0.06,-0.06,0.04,-0.02
2024-12-25 18:55:09,851,776,807,761,756,-1.70,-9.66,-0.00,-0.05,0.04,-0.00
2024-12-25 18:55:09,849,777,805,761,756,-1.67,-9.64,-0.02,-0.03,0.04,-0.01
2024-12-25 18:55:09,846,779,807,762,756,-1.74,-9.69,0.02,-0.04,0.06,-0.03
2024-12-25 18:55:09,845,774,802,762,758,-1.65,-9.58,-0.01,0.04,-0.01,0.04
2024-12-25 18:55:09,845,775,801,762,757,-1.65,-9.76,0.08,-0.06,0.05,-0.01
2024-12-25 18:55:10,843,775,801,761,759,-1.68,-9.68,0.04,-0.02,0.00,-0.01
2024-12-25 18:55:10,843,774,801,760,758,-1.75,-9.81,0.19,-0.06,0.04,-0.03
2024-12-25 18:55:10,846,776,801,760,758,-1.58,-9.58,-0.05,-0.10,0.02,0.01
2024-12-25 18:55:10,845,773,801,761,755,-1.82,-9.62,-0.02,-0.04,0.02,-0.03
2024-12-25 18:55:10,845,775,800,761,756,-1.68,-9.80,0.06,-0.03,0.05,-0.01
2024-12-25 18:55:11,842,774,801,760,755,-1.66,-9.67,-0.07,-0.06,0.05,-0.02
2024-12-25 18:55:11,842,774,801,760,756,-1.70,-9.75,0.02,-0.03,0.06,-0.03
2024-12-25 18:55:11,844,775,802,762,756,-1.55,-9.66,-0.14,-0.05,0.02,-0.04
2024-12-25 18:55:11,844,774,800,759,757,-1.75,-9.80,0.02,-0.00,0.02,-0.01
2024-12-25 18:55:11,844,775,802,763,757,-1.60,-9.67,-0.03,-0.07,0.05,0.01
2024-12-25 18:55:11,846,774,800,759,755,-1.54,-9.79,0.10,-0.04,0.04,-0.01
2024-12-25 18:55:12,843,775,801,761,756,-1.65,-9.64,-0.06,-0.06,0.01,-0.04
2024-12-25 18:55:12,840,775,801,761,756,-1.61,-9.81,0.06,-0.02,0.04,0.01
2024-12-25 18:55:12,842,774,800,760,756,-1.61,-9.69,0.06,-0.03,0.02,0.02
2024-12-25 18:55:12,842,773,801,763,756,-1.58,-9.71,0.15,-0.04,0.06,-0.02
2024-12-25 18:55:12,839,774,803,760,756,-1.61,-9.65,0.06,-0.03,0.03,-0.01
2024-12-25 18:55:13,843,775,801,761,756,-1.60,-9.78,0.11,-0.00,0.03,0.05
2024-12-25 18:55:13,841,774,801,761,757,-1.76,-10.13,-0.08,-0.16,0.14,-0.22
2024-12-25 18:55:13,841,773,798,762,756,-1.42,-9.64,-0.05,-0.13,0.08,0.10
2024-12-25 18:55:13,841,775,803,763,756,-1.70,-9.63,-0.17,-0.07,-0.00,-0.01
2024-12-25 18:55:13,840,776,801,760,755,-1.87,-9.66,0.01,0.07,-0.03,0.03
2024-12-25 18:55:14,843,774,800,761,756,-1.70,-9.79,0.05,-0.04,0.04,-0.01
2024-12-25 18:55:14,842,774,800,761,756,-1.70,-9.56,-0.11,-0.01,0.01,0.03
2024-12-25 18:55:14,841,774,799,760,756,-1.86,-9.96,0.30,0.05,0.04,0.15
2024-12-25 18:55:14,842,774,800,760,757,-2.17,-9.56,0.38,-0.03,-0.01,0.00
2024-12-25 18:55:14,840,775,802,761,757,-2.22,-9.74,0.39,-0.03,0.06,-0.03
2024-12-25 18:55:14,840,775,801,760,757,-1.98,-9.58,0.08,-0.05,0.05,-0.02
2024-12-25 18:55:15,841,777,804,762,756,-1.91,-9.67,0.30,-0.03,0.05,-0.01
2024-12-25 18:55:15,838,772,801,761,756,-1.99,-9.62,0.42,-0.01,0.02,0.02
2024-12-25 18:55:15,843,775,801,760,755,-1.98,-9.45,0.09,-0.02,0.03,0.01
2024-12-25 18:55:15,844,776,803,760,757,-2.18,-9.74,0.52,-0.05,0.11,-0.02
2024-12-25 18:55:15,840,774,801,760,756,-1.92,-9.72,0.09,-0.08,0.16,0.03
2024-12-25 18:55:16,842,774,801,762,756,-1.70,-9.75,0.35,0.08,-0.05,-0.07
2024-12-25 18:55:16,843,774,802,761,757,-2.56,-9.74,0.16,-0.14,0.06,0.11
2024-12-25 18:55:16,844,773,801,760,756,-1.83,-9.45,0.01,-0.05,0.11,-0.03
2024-12-25 18:55:16,841,774,803,759,755,-1.87,-9.55,0.08,-0.13,0.14,0.01
2024-12-25 18:55:16,842,775,804,762,756,-1.94,-9.62,0.06,-0.06,-0.05,-0.05
2024-12-25 18:55:17,839,774,800,762,755,-2.21,-9.49,-0.41,-0.11,0.02,-0.04
2024-12-25 18:55:17,842,777,803,761,756,-1.74,-9.57,-0.29,0.01,0.05,-0.01
2024-12-25 18:55:17,840,775,801,758,757,-1.91,-9.64,-0.11,0.00,0.00,-0.01
2024-12-25 18:55:17,840,774,802,760,756,-2.25,-9.84,-0.07,-0.07,0.02,-0.05
2024-12-25 18:55:17,840,772,802,761,755,-1.92,-9.47,-0.18,-0.01,-0.03,-0.05
2024-12-25 18:55:17,840,776,803,759,758,-2.06,-9.81,-0.10,-0.09,0.01,-0.06
2024-12-25 18:55:18,838,775,801,758,755,-1.63,-9.59,-0.46,-0.16,0.17,-0.12
2024-12-25 18:55:18,840,774,802,760,757,-1.62,-9.59,-0.32,-0.03,0.12,0.03
2024-12-25 18:55:18,842,774,803,761,756,-1.56,-9.67,-0.22,0.04,0.03,-0.03
2024-12-25 18:55:18,841,774,799,763,756,-1.64,-9.79,0.08,-0.03,-0.05,0.04
2024-12-25 18:55:18,840,776,800,761,756,-2.12,-9.70,-0.56,-0.11,-0.04,-0.08
2024-12-25 18:55:19,842,773,802,760,755,-1.74,-9.58,-0.27,-0.12,-0.02,0.03
2024-12-25 18:55:19,838,774,802,762,755,-2.07,-9.52,-0.60,-0.14,0.02,0.10
2024-12-25 18:55:19,840,774,801,758,756,-1.98,-9.54,-0.50,-0.01,-0.07,-0.05
2024-12-25 18:55:19,840,773,801,760,756,-1.76,-9.65,-0.42,0.04,-0.02,-0.10
2024-12-25 18:55:19,839,772,794,761,755,-1.81,-9.58,-0.18,0.13,0.09,0.03
2024-12-25 18:55:20,838,771,790,759,755,-1.97,-9.74,-0.16,-0.11,0.02,0.01
2024-12-25 18:55:20,836,770,786,758,754,-1.75,-9.54,-0.56,-0.18,0.08,-0.06
2024-12-25 18:55:20,836,770,786,758,755,-2.02,-9.52,-0.11,0.06,-0.02,0.03
2024-12-25 18:55:20,835,770,784,757,755,-2.05,-9.56,-0.15,-0.14,-0.06,-0.05
2024-12-25 18:55:20,835,770,788,759,755,-1.75,-9.44,-0.41,-0.04,0.03,-0.03
2024-12-25 18:55:21,835,770,787,757,754,-1.88,-9.67,-0.14,0.06,-0.04,-0.01
2024-12-25 18:55:21,840,770,788,758,754,-1.98,-9.47,-0.25,-0.04,-0.02,-0.01
2024-12-25 18:55:21,837,770,788,758,754,-1.94,-9.67,-0.05,-0.01,0.02,-0.00
2024-12-25 18:55:21,839,772,792,760,754,-1.92,-9.43,-0.10,-0.05,0.00,-0.04
2024-12-25 18:55:21,838,771,791,757,754,-1.56,-9.81,0.07,0.11,-0.00,-0.00
2024-12-25 18:55:21,838,773,792,759,755,-2.11,-9.88,0.19,-0.20,0.04,0.05
2024-12-25 18:55:22,837,770,792,759,756,-1.89,-9.24,-0.29,-0.14,-0.04,-0.02
2024-12-25 18:55:22,838,772,792,759,754,-2.23,-9.88,0.05,-0.08,-0.02,-0.04
2024-12-25 18:55:22,836,772,796,758,755,-1.97,-9.39,-0.54,-0.02,0.07,-0.01
2024-12-25 18:55:22,838,772,794,759,755,-1.61,-9.33,0.43,0.10,-0.02,-0.03
2024-12-25 18:55:22,838,772,796,760,756,-1.64,-9.73,-0.24,-0.04,-0.16,-0.07
2024-12-25 18:55:23,837,773,795,759,755,-1.81,-9.96,0.20,0.06,-0.08,0.10
2024-12-25 18:55:23,836,771,795,760,755,-1.87,-9.42,0.11,-0.01,-0.07,-0.04
2024-12-25 18:55:23,838,775,795,759,756,-1.91,-9.69,0.27,0.05,-0.07,0.07
2024-12-25 18:55:23,837,773,795,759,755,-2.22,-9.52,0.70,0.04,0.02,-0.02
2024-12-25 18:55:23,839,772,795,758,756,-2.02,-9.84,0.56,-0.08,0.03,-0.04
2024-12-25 18:55:24,836,772,797,758,756,-1.91,-9.43,0.70,0.00,-0.02,-0.01
2024-12-25 18:55:24,837,772,795,759,756,-2.27,-9.75,0.68,-0.07,0.01,0.01
2024-12-25 18:55:24,837,772,795,757,754,-2.07,-9.39,0.54,-0.05,0.03,-0.02
2024-12-25 18:55:24,836,773,795,759,755,-2.29,-9.62,0.62,0.08,0.01,0.02
2024-12-25 18:55:24,838,772,796,759,756,-2.28,-9.66,0.75,-0.03,0.06,-0.03
2024-12-25 18:55:24,838,774,797,759,755,-2.12,-9.60,0.57,-0.02,0.06,0.00
2024-12-25 18:55:25,836,772,794,758,756,-2.14,-9.81,0.72,-0.04,0.01,0.07
2024-12-25 18:55:25,837,773,794,758,754,-2.28,-9.40,0.50,-0.11,0.00,0.01
2024-12-25 18:55:25,839,775,795,760,755,-2.35,-9.46,0.62,-0.05,-0.02,0.06
2024-12-25 18:55:25,834,772,795,759,754,-2.28,-9.48,0.78,-0.02,-0.03,-0.00
2024-12-25 18:55:25,837,774,798,758,755,-2.71,-9.60,0.61,-0.13,-0.01,-0.12
2024-12-25 18:55:26,836,772,795,757,754,-2.28,-9.17,0.13,-0.05,0.17,0.03
2024-12-25 18:55:26,836,773,794,759,756,-2.59,-9.67,0.60,0.09,0.16,-0.05
2024-12-25 18:55:26,834,774,797,759,755,-1.83,-9.53,0.32,0.04,-0.05,0.00
2024-12-25 18:55:26,836,772,799,758,754,-2.96,-9.44,0.86,-0.09,-0.03,-0.00
2024-12-25 18:55:26,836,772,795,758,755,-1.85,-9.34,0.54,0.10,-0.06,-0.01
2024-12-25 18:55:27,837,772,794,757,755,-2.86,-9.77,1.04,0.00,0.05,0.00
2024-12-25 18:55:27,835,771,796,758,754,-2.32,-9.44,0.87,-0.11,0.02,-0.05
2024-12-25 18:55:27,837,773,795,759,754,-2.59,-9.34,0.94,-0.10,0.02,-0.05
2024-12-25 18:55:27,836,773,796,759,755,-2.31,-9.51,0.77,0.04,0.05,-0.01
2024-12-25 18:55:27,833,772,793,758,756,-2.24,-9.45,1.02,-0.06,0.03,-0.03
2024-12-25 18:55:27,838,772,796,758,754,-2.39,-9.53,0.84,-0.01,0.01,-0.00
2024-12-25 18:55:28,835,772,794,757,754,-2.23,-9.80,0.94,-0.13,-0.05,-0.04
2024-12-25 18:55:28,835,773,795,758,754,-2.37,-9.54,0.73,0.06,0.08,0.03
2024-12-25 18:55:28,835,773,795,760,756,-2.26,-9.60,0.83,0.00,0.04,-0.05
2024-12-25 18:55:28,836,774,797,758,755,-2.55,-9.62,0.91,-0.08,0.03,-0.03
2024-12-25 18:55:28,835,773,795,758,755,-2.47,-9.47,0.83,-0.10,0.07,0.04
2024-12-25 18:55:29,835,773,796,757,755,-2.22,-9.49,0.93,0.01,0.05,-0.03
2024-12-25 18:55:29,838,773,796,760,757,-2.28,-9.46,0.77,-0.03,0.00,0.01
2024-12-25 18:55:29,836,772,795,757,756,-2.28,-9.66,1.03,0.00,0.06,-0.05
2024-12-25 18:55:29,837,772,796,758,755,-2.09,-9.33,0.98,-0.01,-0.01,-0.02
2024-12-25 18:55:29,836,772,795,758,756,-2.73,-9.84,0.79,-0.17,0.15,-0.05
2024-12-25 18:55:30,834,774,797,758,754,-2.13,-9.01,0.65,-0.03,0.08,0.01
2024-12-25 18:55:30,837,773,796,759,756,-2.46,-10.25,0.41,-0.15,0.22,-0.14
2024-12-25 18:55:30,835,774,795,757,755,-1.28,-9.21,0.26,-0.21,0.11,-0.08
2024-12-25 18:55:30,837,772,797,759,755,-1.76,-9.39,0.18,0.02,-0.14,-0.00
2024-12-25 18:55:30,835,774,797,759,754,-1.24,-9.84,-0.18,-0.06,-0.07,0.10
2024-12-25 18:55:30,836,773,797,758,756,-1.77,-9.95,-0.04,0.07,-0.19,-0.00
2024-12-25 18:55:31,837,774,796,758,755,-1.91,-9.65,-0.51,-0.39,0.34,-0.15
2024-12-25 18:55:31,836,772,797,757,756,-2.09,-9.53,-0.97,-0.06,-0.06,-0.02
2024-12-25 18:55:31,835,772,797,758,755,-1.90,-9.63,-0.52,-0.06,0.01,-0.02
2024-12-25 18:55:31,835,774,795,759,756,-1.80,-9.89,-1.00,-0.05,0.10,-0.12
2024-12-25 18:55:31,833,773,794,757,755,-2.11,-9.28,-0.47,-0.26,0.15,-0.02
2024-12-25 18:55:32,834,773,795,759,755,-1.83,-9.82,-0.89,0.07,0.05,-0.07
2024-12-25 18:55:32,836,775,795,758,756,-1.65,-9.59,-0.25,0.00,0.15,0.04
2024-12-25 18:55:32,836,772,796,759,755,-1.46,-9.54,-0.13,-0.03,-0.10,0.04
2024-12-25 18:55:32,837,774,798,759,756,-1.45,-9.57,0.11,-0.02,-0.02,0.07
2024-12-25 18:55:32,833,772,796,758,754,-1.97,-9.37,-0.08,-0.18,0.08,-0.14
2024-12-25 18:55:33,833,772,798,760,755,-1.86,-9.94,-0.36,0.06,0.03,0.01
2024-12-25 18:55:33,837,772,797,757,756,-2.17,-9.31,0.34,-0.17,0.02,0.13
2024-12-25 18:55:33,834,772,795,757,756,-0.98,-9.45,-0.72,0.05,0.08,-0.30
2024-12-25 18:55:33,834,773,796,758,755,-1.85,-9.48,-0.33,-0.04,0.11,0.01
2024-12-25 18:55:33,835,772,794,757,756,-0.62,-9.73,-1.05,-0.04,-0.04,-0.17
2024-12-25 18:55:33,835,774,795,758,755,-2.71,-9.94,0.21,-0.02,0.00,0.10
2024-12-25 18:55:34,836,773,796,758,756,-1.35,-9.84,0.79,0.22,0.14,0.04
2024-12-25 18:55:34,834,773,794,758,756,-1.41,-10.11,-0.74,-0.28,0.15,0.18
2024-12-25 18:55:34,835,773,795,757,756,-1.87,-9.17,-0.28,-0.10,-0.02,-0.02
2024-12-25 18:55:34,834,773,794,758,755,-2.25,-9.79,-0.14,0.12,0.10,-0.03
2024-12-25 18:55:34,833,774,795,759,754,-1.02,-9.95,-0.30,-0.16,0.28,-0.10
2024-12-25 18:55:35,833,771,796,758,756,-1.67,-9.45,-0.64,-0.21,0.18,-0.12
2024-12-25 18:55:35,836,774,795,757,756,-1.13,-9.87,-0.66,0.04,0.03,-0.03
2024-12-25 18:55:35,836,775,794,758,756,-1.21,-9.65,-0.60,-0.05,-0.04,0.01
2024-12-25 18:55:35,834,773,795,759,755,-1.45,-9.48,-0.55,0.05,-0.17,0.13
2024-12-25 18:55:35,836,773,796,758,756,-1.87,-9.72,0.18,0.04,0.03,-0.05
2024-12-25 18:55:36,834,771,795,760,756,-1.86,-9.53,-0.28,-0.03,-0.01,0.03
2024-12-25 18:55:36,834,774,796,759,755,-1.89,-9.70,0.03,0.04,-0.04,-0.05
2024-12-25 18:55:36,831,772,796,758,755,-1.69,-9.79,-0.07,-0.04,0.09,-0.02
2024-12-25 18:55:36,834,773,797,758,756,-1.31,-9.70,-0.18,0.02,-0.09,-0.06
2024-12-25 18:55:36,834,772,795,759,755,-1.32,-9.46,0.43,-0.10,0.00,-0.09
2024-12-25 18:55:36,832,775,794,758,755,-1.92,-9.70,-0.36,-0.02,-0.04,0.09
2024-12-25 18:55:37,835,775,797,758,757,-1.72,-9.75,-0.10,0.02,-0.00,-0.01
2024-12-25 18:55:37,836,773,795,757,756,-1.78,-9.45,0.10,-0.12,0.03,-0.06
2024-12-25 18:55:37,836,774,797,759,755,-1.75,-9.78,0.05,-0.03,0.09,0.00
2024-12-25 18:55:37,834,773,795,758,757,-1.41,-9.56,-0.09,-0.02,0.04,-0.02
2024-12-25 18:55:37,834,774,795,758,756,-1.57,-9.75,0.01,-0.03,0.04,-0.04
2024-12-25 18:55:38,833,773,797,758,755,-1.73,-9.70,-0.17,-0.07,0.05,-0.00
2024-12-25 18:55:38,833,773,796,759,756,-1.47,-9.61,0.20,-0.00,0.02,-0.00
2024-12-25 18:55:38,837,773,797,760,756,-1.53,-9.65,0.09,-0.01,0.00,-0.02
2024-12-25 18:55:38,834,772,795,756,755,-1.56,-9.77,0.11,-0.02,0.03,-0.03
2024-12-25 18:55:38,834,774,797,758,756,-1.52,-9.69,0.00,-0.03,0.02,-0.05
2024-12-25 18:55:39,834,772,794,759,755,-1.58,-9.73,0.10,-0.02,-0.00,-0.02
2024-12-25 18:55:39,834,774,795,758,756,-1.64,-9.73,0.01,-0.06,0.05,-0.04
2024-12-25 18:55:39,833,775,796,759,754,-1.73,-9.73,0.03,-0.03,0.07,-0.00
2024-12-25 18:55:39,836,772,795,757,756,-1.36,-9.76,0.06,-0.07,0.04,-0.03
2024-12-25 18:55:39,833,772,795,758,756,-1.79,-9.78,0.08,-0.11,0.06,-0.03
2024-12-25 18:55:39,833,773,797,758,754,-1.31,-9.67,-0.15,-0.05,0.09,-0.02
2024-12-25 18:55:40,834,774,796,760,755,-1.43,-9.73,-0.20,-0.03,0.04,-0.01
2024-12-25 18:55:40,833,773,795,759,756,-1.61,-9.70,0.05,-0.02,0.00,0.01
2024-12-25 18:55:40,833,771,798,759,755,-1.46,-9.77,-0.02,0.04,0.04,-0.02
2024-12-25 18:55:40,836,773,797,758,756,-1.38,-9.80,0.01,-0.06,0.01,-0.02
2024-12-25 18:55:40,836,773,796,757,756,-1.56,-9.60,-0.14,-0.10,0.02,-0.03
2024-12-25 18:55:41,834,773,796,758,757,-1.33,-9.69,-0.10,0.02,0.13,-0.04
2024-12-25 18:55:41,835,772,796,758,755,-1.46,-9.72,-0.01,-0.05,0.03,-0.01
2024-12-25 18:55:41,835,772,796,758,756,-1.29,-9.70,-0.01,0.00,0.01,-0.01
2024-12-25 18:55:41,833,773,797,758,757,-1.89,-9.66,-0.13,-0.09,0.10,-0.06
2024-12-25 18:55:41,833,771,796,756,757,-1.16,-9.73,0.00,0.10,0.10,-0.02
2024-12-25 18:55:42,834,775,794,758,756,-1.24,-10.01,0.26,-0.03,-0.02,-0.01
2024-12-25 18:55:42,833,772,796,756,756,-1.47,-9.71,0.25,-0.08,0.05,-0.01
2024-12-25 18:55:42,836,773,798,759,756,-1.28,-9.78,0.17,0.01,0.04,0.02
2024-12-25 18:55:42,835,774,797,760,756,-1.35,-9.79,0.22,-0.05,0.02,-0.02
2024-12-25 18:55:42,832,774,797,757,755,-1.30,-9.78,0.30,-0.04,0.00,0.01
2024-12-25 18:55:42,835,774,797,758,756,-1.30,-9.69,0.11,-0.04,0.03,-0.04
2024-12-25 18:55:43,834,774,798,758,758,-1.17,-9.69,0.35,-0.05,0.02,-0.03
2024-12-25 18:55:43,836,774,797,758,755,-1.49,-9.87,0.25,0.04,-0.00,-0.01
2024-12-25 18:55:43,837,774,799,761,757,-1.30,-9.76,0.22,-0.05,0.04,-0.02
2024-12-25 18:55:43,834,772,794,757,756,-1.32,-9.76,0.46,-0.04,0.02,-0.02
2024-12-25 18:55:43,833,773,796,759,755,-1.38,-9.74,0.24,-0.01,0.03,-0.05
2024-12-25 18:55:44,835,774,799,757,756,-1.39,-9.87,0.34,-0.05,0.02,0.02
2024-12-25 18:55:44,834,773,795,758,756,-1.21,-9.68,0.25,-0.01,0.04,-0.04
2024-12-25 18:55:44,834,775,797,758,755,-0.93,-9.74,0.48,-0.08,0.01,-0.03
2024-12-25 18:55:44,835,774,796,760,756,-1.34,-9.87,0.46,-0.03,0.05,0.00
2024-12-25 18:55:44,834,774,796,758,755,-1.05,-9.67,0.28,-0.04,-0.00,0.01
2024-12-25 18:55:45,835,773,796,758,755,-1.11,-9.86,0.36,0.03,0.02,0.00
2024-12-25 18:55:45,835,773,798,760,757,-1.22,-9.83,0.20,-0.08,0.04,-0.04
2024-12-25 18:55:45,834,772,795,757,756,-1.26,-9.84,0.33,-0.07,0.01,0.02
2024-12-25 18:55:45,834,774,798,758,756,-1.02,-9.67,0.23,-0.04,0.02,0.01
2024-12-25 18:55:45,836,776,798,759,757,-1.38,-9.73,0.38,-0.04,0.02,-0.02
2024-12-25 18:55:45,834,773,795,756,757,-1.36,-9.78,0.28,-0.04,0.04,0.01
2024-12-25 18:55:46,835,775,797,758,756,-1.10,-9.88,0.21,-0.01,0.06,-0.02
2024-12-25 18:55:46,835,773,796,758,757,-1.26,-9.84,0.35,0.02,-0.03,-0.02
2024-12-25 18:55:46,834,774,795,757,754,-1.50,-9.86,0.16,-0.06,0.07,-0.01
2024-12-25 18:55:46,835,774,797,759,757,-0.64,-9.71,0.03,-0.14,-0.07,-0.12
2024-12-25 18:55:46,835,772,796,757,756,-1.16,-10.00,0.49,-0.01,0.04,-0.07
2024-12-25 18:55:47,834,774,796,758,756,-0.96,-9.83,0.12,-0.06,0.02,0.05
2024-12-25 18:55:47,833,773,797,758,756,-1.05,-9.88,0.11,-0.02,0.04,0.02
2024-12-25 18:55:47,832,773,797,758,756,-1.12,-9.83,0.18,-0.04,0.04,0.00
2024-12-25 18:55:47,834,773,798,757,755,-1.05,-9.80,0.33,-0.05,0.02,0.00
2024-12-25 18:55:47,834,774,797,758,755,-0.97,-9.78,0.12,-0.03,0.04,-0.02
2024-12-25 18:55:48,832,773,795,759,755,-0.96,-9.86,0.13,-0.05,0.03,-0.02
2024-12-25 18:55:48,834,774,796,759,757,-1.15,-9.75,0.01,-0.07,0.02,0.01
2024-12-25 18:55:48,834,775,797,757,757,-1.05,-9.86,0.36,0.04,0.00,-0.05
2024-12-25 18:55:48,833,772,792,758,755,-0.78,-9.85,-0.32,-0.13,0.00,-0.08
2024-12-25 18:55:48,833,773,791,756,756,-1.08,-9.50,0.01,-0.04,0.01,-0.03
2024-12-25 18:55:48,833,771,792,758,756,-1.17,-9.84,0.19,-0.05,-0.03,0.03
2024-12-25 18:55:49,836,772,794,758,756,-1.10,-9.77,0.04,0.03,0.07,0.07
2024-12-25 18:55:49,834,774,795,758,755,-1.22,-9.93,-0.04,-0.02,0.04,-0.00
2024-12-25 18:55:49,832,772,796,756,756,-1.37,-9.90,-0.05,-0.02,0.13,0.01
2024-12-25 18:55:49,833,774,795,759,756,-0.88,-9.63,-0.17,-0.14,-0.01,-0.03
2024-12-25 18:55:49,829,772,794,759,756,-1.07,-9.90,-0.06,-0.02,-0.01,0.03
2024-12-25 18:55:50,834,773,798,758,757,-0.99,-9.56,-0.04,-0.01,-0.11,0.01
2024-12-25 18:55:50,831,773,798,758,755,-1.26,-9.97,-0.04,0.03,-0.07,0.18
2024-12-25 18:55:50,832,773,801,759,756,-1.51,-9.57,0.10,-0.02,-0.04,0.12
2024-12-25 18:55:50,832,775,799,759,757,-1.53,-10.02,-0.06,-0.03,-0.01,0.04
2024-12-25 18:55:50,831,774,801,758,755,-2.18,-9.67,-0.07,-0.16,-0.03,-0.02
2024-12-25 18:55:51,830,775,800,758,755,-1.38,-9.35,-0.11,-0.11,0.10,-0.08
2024-12-25 18:55:51,836,773,802,759,757,-1.60,-10.12,-0.23,0.03,0.09,-0.05
2024-12-25 18:55:51,833,773,799,758,756,-1.37,-9.38,-0.31,-0.18,-0.05,-0.01
2024-12-25 18:55:51,833,775,800,759,756,-1.64,-9.95,0.04,0.03,0.13,-0.04
2024-12-25 18:55:51,833,772,799,759,756,-0.97,-9.54,-0.45,-0.12,0.18,-0.18
2024-12-25 18:55:52,833,774,799,759,756,-1.62,-9.67,-0.46,0.01,-0.05,0.04
2024-12-25 18:55:52,832,774,801,759,756,-1.23,-9.82,-0.15,0.04,-0.01,0.04
2024-12-25 18:55:52,833,774,800,760,755,-1.71,-9.80,0.03,-0.01,-0.02,0.03
2024-12-25 18:55:52,834,774,802,760,756,-1.25,-9.56,-0.07,-0.04,-0.02,-0.03
2024-12-25 18:55:52,833,773,801,760,758,-1.97,-9.85,0.10,-0.04,0.01,0.02
2024-12-25 18:55:52,834,773,800,759,755,-1.11,-9.67,0.21,-0.04,0.01,-0.19
2024-12-25 18:55:53,834,774,799,758,756,-1.38,-9.66,-0.46,-0.06,0.11,0.01
2024-12-25 18:55:53,832,774,799,759,755,-1.11,-9.65,-0.24,0.01,0.03,0.03
2024-12-25 18:55:53,833,775,799,761,757,-1.53,-9.85,-0.04,-0.02,0.02,-0.10
2024-12-25 18:55:53,834,773,799,758,755,-1.04,-10.25,-0.40,-0.03,0.24,0.03
2024-12-25 18:55:53,834,775,800,760,756,-1.24,-9.30,-0.16,-0.11,-0.19,-0.00
2024-12-25 18:55:54,833,773,799,759,755,-1.12,-9.79,-0.30,0.04,0.08,-0.06
2024-12-25 18:55:54,834,773,800,761,757,-0.70,-9.76,-0.08,-0.05,0.08,-0.11
2024-12-25 18:55:54,833,773,798,759,756,-1.03,-9.96,-0.14,0.07,0.05,-0.04
2024-12-25 18:55:54,831,774,800,759,757,-0.96,-9.77,-0.05,-0.06,0.01,0.01
2024-12-25 18:55:54,834,771,799,759,755,-0.95,-9.88,0.05,0.01,0.01,-0.00
2024-12-25 18:55:55,831,775,800,760,757,-0.99,-9.80,0.02,-0.04,0.02,-0.02
2024-12-25 18:55:55,835,775,799,759,756,-1.10,-9.83,0.16,-0.01,0.02,-0.01
2024-12-25 18:55:55,833,773,798,758,756,-1.05,-9.85,0.14,-0.03,0.03,0.00
2024-12-25 18:55:55,831,774,800,759,755,-1.02,-9.73,0.11,-0.02,0.03,-0.01
2024-12-25 18:55:55,833,775,801,761,756,-1.02,-9.86,0.15,-0.06,0.04,-0.03
2024-12-25 18:55:55,831,773,799,760,756,-1.07,-9.83,0.22,-0.04,0.03,-0.01
2024-12-25 18:55:56,833,775,799,758,756,-1.05,-9.84,0.15,-0.07,0.05,-0.01
2024-12-25 18:55:56,836,774,802,758,756,-0.98,-9.73,0.05,-0.03,0.02,-0.02
2024-12-25 18:55:56,833,774,801,759,756,-0.96,-9.90,0.28,-0.02,0.02,-0.01
2024-12-25 18:55:56,834,774,801,759,757,-0.96,-9.79,0.11,-0.06,0.03,-0.02
2024-12-25 18:55:56,834,774,798,759,756,-0.98,-9.86,0.24,-0.01,0.02,-0.00
2024-12-25 18:55:57,835,775,799,758,757,-0.96,-9.76,0.25,-0.03,0.02,-0.01
2024-12-25 18:55:57,831,774,798,757,755,-1.00,-9.87,0.19,0.03,0.04,0.00
2024-12-25 18:55:57,834,775,799,759,755,-1.03,-9.82,0.38,-0.04,0.03,-0.01
2024-12-25 18:55:57,832,775,798,761,756,-0.97,-9.78,0.30,-0.02,0.01,0.00
2024-12-25 18:55:57,835,775,800,761,757,-1.05,-9.83,0.30,-0.08,0.06,-0.02
2024-12-25 18:55:58,835,773,800,758,757,-1.03,-9.87,0.19,-0.06,0.06,-0.02
2024-12-25 18:55:58,833,773,799,758,757,-0.90,-9.79,0.11,-0.05,0.04,-0.01
2024-12-25 18:55:58,833,773,799,758,757,-0.91,-9.87,0.26,-0.04,0.03,-0.01
2024-12-25 18:55:58,834,775,797,761,757,-0.86,-9.79,0.19,-0.05,0.03,-0.01
2024-12-25 18:55:58,835,772,801,759,756,-0.84,-9.81,0.22,-0.02,0.01,-0.02
2024-12-25 18:55:58,836,774,798,758,754,-0.95,-9.90,0.25,-0.05,0.01,-0.01
2024-12-25 18:55:59,833,775,798,759,755,-0.98,-9.80,0.18,-0.05,0.03,-0.01
2024-12-25 18:55:59,832,774,799,759,756,-0.89,-9.84,0.17,-0.03,0.02,-0.01
2024-12-25 18:55:59,832,773,799,758,756,-1.02,-9.89,0.27,-0.05,0.05,-0.01
2024-12-25 18:55:59,836,775,802,759,757,-0.90,-9.76,0.13,-0.05,0.02,-0.01
2024-12-25 18:55:59,833,775,800,758,755,-0.94,-9.85,0.21,-0.05,0.01,-0.02
2024-12-25 18:56:00,839,774,799,760,757,-0.89,-9.80,0.15,-0.07,0.04,-0.02
2024-12-25 18:56:00,840,775,802,759,756,-0.89,-9.86,0.16,-0.04,0.02,-0.03
2024-12-25 18:56:00,839,775,802,759,757,-0.97,-9.83,0.10,-0.04,0.03,-0.03
2024-12-25 18:56:00,840,776,803,760,757,-0.91,-9.84,0.17,-0.02,0.02,-0.00
2024-12-25 18:56:00,837,774,802,758,755,-0.85,-9.85,0.13,-0.04,0.02,-0.01
2024-12-25 18:56:01,839,775,804,758,757,-0.58,-9.86,0.18,0.03,0.06,0.03
2024-12-25 18:56:01,839,777,802,760,755,-1.07,-9.91,0.28,-0.09,-0.02,0.01
2024-12-25 18:56:01,838,775,803,759,756,-1.04,-9.79,0.10,0.04,0.01,0.02
2024-12-25 18:56:01,837,776,800,758,756,-0.93,-10.00,0.11,-0.09,0.02,-0.03
2024-12-25 18:56:01,838,778,804,760,756,-0.78,-9.47,0.17,-0.15,0.01,-0.03
2024-12-25 18:56:01,837,775,800,761,756,-1.16,-9.95,0.43,0.04,0.08,-0.03
2024-12-25 18:56:02,835,776,802,760,756,-1.15,-10.01,-0.23,0.01,-0.01,0.07
2024-12-25 18:56:02,836,775,801,759,756,-0.91,-10.08,-0.25,-0.01,-0.06,0.01
2024-12-25 18:56:02,837,776,804,758,755,-0.76,-9.73,0.49,-0.07,0.01,-0.07
2024-12-25 18:56:02,838,776,802,759,756,-0.90,-9.43,0.41,-0.09,0.06,-0.02
2024-12-25 18:56:02,836,775,802,757,757,-1.02,-9.93,0.45,0.03,0.07,-0.02
2024-12-25 18:56:03,837,775,804,759,756,-1.25,-10.23,-0.03,0.04,-0.01,0.07
2024-12-25 18:56:03,836,775,802,758,756,-0.91,-9.96,0.12,-0.28,0.09,0.01
2024-12-25 18:56:03,837,775,803,759,756,-0.32,-9.12,0.27,-0.35,-0.05,-0.10
2024-12-25 18:56:03,836,778,805,759,757,-1.42,-9.83,-0.26,0.06,0.03,0.03
2024-12-25 18:56:03,837,774,805,757,756,-0.67,-9.88,-0.07,-0.02,0.04,-0.01
2024-12-25 18:56:04,838,778,802,758,758,-0.90,-9.96,0.04,-0.03,-0.01,0.02
2024-12-25 18:56:04,838,776,802,758,757,-0.85,-9.73,-0.10,-0.03,0.07,-0.01
2024-12-25 18:56:04,838,775,804,757,756,-0.75,-10.05,-0.03,0.02,-0.01,-0.02
2024-12-25 18:56:04,837,775,802,757,756,-0.96,-9.74,-0.06,-0.12,0.01,-0.04
2024-12-25 18:56:04,836,777,804,761,757,-1.12,-9.88,0.20,0.00,0.02,0.00
2024-12-25 18:56:04,838,777,802,759,758,-1.07,-10.09,-0.20,0.03,0.04,0.01
2024-12-25 18:56:05,835,776,802,757,756,-0.70,-9.75,-0.06,-0.10,0.00,-0.02
2024-12-25 18:56:05,837,779,805,760,756,-0.65,-9.46,0.34,-0.11,0.08,-0.06
2024-12-25 18:56:05,837,777,802,761,758,-1.02,-9.89,0.31,0.03,0.06,-0.03
2024-12-25 18:56:05,837,776,803,758,756,-1.02,-10.13,-0.33,0.02,-0.03,0.05
2024-12-25 18:56:05,836,777,802,760,756,-0.74,-9.84,-0.02,-0.06,-0.00,-0.00
2024-12-25 18:56:06,835,775,801,760,758,-0.79,-9.81,0.27,-0.06,0.05,-0.04
2024-12-25 18:56:06,838,775,803,759,756,-0.79,-9.82,0.23,-0.03,0.05,-0.03
2024-12-25 18:56:06,835,776,802,759,757,-1.03,-9.87,0.02,-0.04,0.06,0.05
2024-12-25 18:56:06,836,776,803,757,757,-0.63,-9.89,0.33,-0.03,0.05,-0.05
2024-12-25 18:56:06,835,775,804,758,756,-1.46,-9.95,0.35,-0.08,-0.01,0.22
2024-12-25 18:56:07,837,776,803,758,756,-0.43,-9.30,-0.32,0.12,0.18,-0.19
2024-12-25 18:56:07,835,776,802,760,757,-0.22,-10.23,0.68,-0.00,-0.00,0.04
2024-12-25 18:56:07,836,777,803,758,756,-1.41,-9.84,0.46,-0.11,-0.08,-0.15
2024-12-25 18:56:07,838,779,803,759,755,-0.12,-9.64,-0.01,0.05,0.10,0.06
2024-12-25 18:56:07,836,775,803,758,755,-1.57,-10.14,0.93,-0.09,-0.18,-0.05
2024-12-25 18:56:07,834,777,802,758,757,-0.66,-9.51,0.13,-0.06,0.17,-0.02
2024-12-25 18:56:08,835,777,803,759,756,-0.36,-10.05,1.18,0.14,-0.16,0.05
2024-12-25 18:56:08,836,774,804,757,756,-1.38,-9.61,0.44,-0.20,0.05,-0.16
2024-12-25 18:56:08,839,776,802,760,757,-0.22,-10.21,0.60,0.19,0.17,0.15
2024-12-25 18:56:08,834,775,803,757,756,-0.93,-9.61,0.84,-0.29,-0.12,-0.08
2024-12-25 18:56:08,835,775,802,758,757,-0.48,-9.96,1.20,0.09,0.05,0.02
2024-12-25 18:56:09,836,776,805,759,756,-0.68,-10.09,1.05,0.06,-0.18,-0.14
2024-12-25 18:56:09,834,776,803,759,756,-0.14,-9.58,0.35,-0.33,-0.17,-0.43
2024-12-25 18:56:09,835,777,804,760,755,-0.89,-10.15,0.35,0.23,0.17,0.28
2024-12-25 18:56:09,834,775,803,757,757,-0.43,-9.93,0.49,-0.31,0.08,0.24
2024-12-25 18:56:09,834,774,803,758,756,-0.58,-9.68,0.34,0.07,-0.04,-0.01
2024-12-25 18:56:10,834,776,799,759,758,-1.00,-9.92,0.31,-0.11,0.06,-0.16
2024-12-25 18:56:10,834,772,794,759,756,-0.58,-10.04,0.57,-0.00,0.19,0.05
2024-12-25 18:56:10,833,774,788,759,755,-0.79,-9.97,0.34,-0.23,0.10,0.04
2024-12-25 18:56:10,834,774,789,760,754,-0.53,-9.98,-0.08,-0.17,0.17,-0.09
2024-12-25 18:56:10,825,767,778,757,753,-1.41,-9.45,0.46,0.40,-0.12,0.39
2024-12-25 18:56:10,826,764,776,756,753,-1.51,-9.96,1.14,-0.12,0.14,-0.17
2024-12-25 18:56:11,829,764,780,756,751,-0.84,-9.85,0.63,-0.43,-0.22,-0.12
2024-12-25 18:56:11,829,763,784,758,754,-1.04,-9.86,0.28,0.09,0.13,-0.02
2024-12-25 18:56:11,836,768,791,758,754,-1.11,-9.89,0.19,-0.04,0.05,0.00
2024-12-25 18:56:11,833,767,790,758,753,-0.98,-9.81,0.59,0.10,0.15,0.06
2024-12-25 18:56:11,832,769,790,757,755,-1.77,-9.84,0.96,0.21,0.32,0.14
2024-12-25 18:56:12,830,769,791,756,753,-1.32,-9.75,0.96,0.10,0.15,0.03
2024-12-25 18:56:12,830,768,790,756,753,-1.68,-9.71,0.99,-0.03,-0.02,-0.02
2024-12-25 18:56:12,829,769,789,756,752,-1.76,-9.85,1.15,-0.00,0.00,0.01
2024-12-25 18:56:12,833,771,789,756,754,-1.50,-9.81,1.08,-0.17,-0.10,-0.00
2024-12-25 18:56:12,834,773,790,758,755,-1.44,-9.50,1.03,-0.08,0.06,-0.03
2024-12-25 18:56:13,833,773,791,757,755,-1.75,-9.72,1.11,-0.00,0.06,0.01
2024-12-25 18:56:13,835,773,791,757,754,-1.56,-9.73,0.97,-0.05,-0.01,0.03
2024-12-25 18:56:13,838,774,794,757,754,-1.76,-9.93,0.74,-0.05,0.01,0.05
2024-12-25 18:56:13,835,773,790,756,755,-1.42,-10.66,0.63,0.06,0.56,0.51
2024-12-25 18:56:13,831,773,790,755,755,-3.31,-8.47,0.79,0.19,0.43,0.19
2024-12-25 18:56:13,833,776,792,759,755,-2.79,-9.01,0.73,0.06,-0.08,-0.02
2024-12-25 18:56:14,830,773,788,756,753,-3.09,-9.49,0.67,-0.07,-0.07,0.03
2024-12-25 18:56:14,830,773,789,757,754,-2.90,-9.41,0.66,-0.08,0.01,0.00
2024-12-25 18:56:14,830,774,792,756,754,-2.90,-9.26,0.87,0.00,0.01,-0.00
2024-12-25 18:56:14,831,773,790,754,753,-3.01,-9.45,0.85,0.05,0.05,0.01
2024-12-25 18:56:14,830,772,790,754,753,-3.09,-9.39,0.83,-0.08,0.01,-0.00
2024-12-25 18:56:15,829,772,790,757,755,-2.84,-9.38,0.85,-0.05,-0.01,-0.02
2024-12-25 18:56:15,830,773,791,756,754,-2.61,-9.21,0.88,0.03,-0.10,0.03
2024-12-25 18:56:15,830,771,789,756,754,-1.99,-7.61,0.97,-1.40,-1.76,-0.11
2024-12-25 18:56:15,827,772,788,757,756,-2.50,-10.47,0.01,-0.10,-0.35,-0.57
2024-12-25 18:56:15,829,773,785,757,754,-2.10,-9.72,0.54,0.13,-0.01,0.08
2024-12-25 18:56:16,828,774,788,758,754,-2.12,-9.66,0.99,0.27,0.12,-0.02
2024-12-25 18:56:16,827,773,787,756,755,-2.16,-9.86,1.38,-0.09,0.09,-0.04
2024-12-25 18:56:16,828,773,788,758,754,-1.98,-9.48,1.19,-0.15,-0.05,-0.10
2024-12-25 18:56:16,829,772,787,756,754,-1.99,-9.48,1.16,-0.01,0.21,-0.10
2024-12-25 18:56:16,830,772,788,759,755,-2.03,-9.87,0.96,0.06,-0.02,0.04
2024-12-25 18:56:16,828,774,791,757,755,-1.94,-9.75,1.21,-0.05,0.03,0.00
2024-12-25 18:56:17,826,773,790,758,754,-1.76,-9.58,1.19,-0.07,0.08,-0.09
2024-12-25 18:56:17,827,773,792,757,755,-1.87,-9.60,1.35,-0.10,0.07,0.01
2024-12-25 18:56:17,829,773,793,758,756,-1.81,-9.77,0.79,-0.02,-0.04,-0.03
2024-12-25 18:56:17,829,773,790,757,756,-1.79,-9.77,0.90,-0.04,0.07,-0.02
2024-12-25 18:56:17,829,774,793,758,756,-1.82,-9.56,1.09,-0.08,0.06,-0.00
2024-12-25 18:56:18,828,774,792,757,755,-1.79,-9.64,1.00,0.01,-0.01,-0.03
2024-12-25 18:56:18,827,775,795,758,756,-1.84,-9.70,1.10,-0.06,0.02,-0.01
2024-12-25 18:56:18,828,773,792,757,755,-1.76,-9.71,1.05,-0.00,0.04,-0.01
2024-12-25 18:56:18,826,773,793,757,755,-1.78,-9.70,1.06,-0.05,0.04,-0.03
2024-12-25 18:56:18,829,773,794,758,755,-1.70,-9.72,1.08,-0.03,0.02,-0.01
2024-12-25 18:56:19,830,775,794,759,756,-1.71,-9.73,1.20,-0.04,0.09,0.01
2024-12-25 18:56:19,828,773,793,756,756,-1.82,-9.66,1.06,-0.01,-0.00,-0.03
2024-12-25 18:56:19,829,775,796,757,757,-1.85,-9.68,1.19,-0.01,0.01,-0.00
2024-12-25 18:56:19,828,776,793,756,755,-1.77,-9.69,1.20,-0.02,0.00,0.01
2024-12-25 18:56:19,828,775,793,758,755,-1.79,-9.67,1.19,-0.02,0.02,-0.03
2024-12-25 18:56:19,830,776,794,760,755,-1.78,-9.64,1.13,-0.01,-0.06,-0.02
2024-12-25 18:56:20,827,774,793,756,754,-1.78,-9.76,1.33,-0.04,0.00,-0.02
2024-12-25 18:56:20,829,776,794,758,756,-1.77,-9.62,1.35,-0.04,0.02,-0.01
2024-12-25 18:56:20,829,776,793,755,756,-1.58,-9.73,1.29,-0.00,0.05,0.01
2024-12-25 18:56:20,828,775,796,756,755,-1.75,-9.77,1.36,-0.08,0.00,-0.02
2024-12-25 18:56:20,832,775,797,757,755,-1.84,-9.67,1.30,-0.04,0.06,-0.02
2024-12-25 18:56:21,831,774,794,758,753,-1.89,-9.65,1.24,-0.08,0.02,0.01
2024-12-25 18:56:21,829,774,796,757,755,-1.77,-9.68,1.25,-0.02,0.02,0.00
2024-12-25 18:56:21,833,775,797,758,755,-1.80,-9.61,1.35,-0.06,0.02,0.01
2024-12-25 18:56:21,830,774,795,758,755,-1.93,-9.67,1.32,-0.02,-0.01,0.01
2024-12-25 18:56:21,830,774,797,756,755,-1.89,-9.62,1.32,-0.05,0.02,-0.00
2024-12-25 18:56:22,831,774,796,758,756,-1.94,-9.62,1.33,-0.01,0.01,-0.00
2024-12-25 18:56:22,830,774,795,756,756,-1.96,-9.67,1.38,-0.04,0.02,-0.01
2024-12-25 18:56:22,829,774,798,758,755,-1.91,-9.64,1.39,-0.03,0.03,-0.01
2024-12-25 18:56:22,830,776,797,756,756,-1.95,-9.57,1.32,-0.05,0.01,-0.01
2024-12-25 18:56:22,832,775,796,758,755,-1.86,-9.70,1.41,-0.00,0.03,0.00
2024-12-25 18:56:22,830,774,796,758,755,-1.88,-9.60,1.35,-0.03,0.03,-0.02
2024-12-25 18:56:23,828,775,796,756,754,-1.90,-9.69,1.47,-0.01,0.02,0.00
2024-12-25 18:56:23,831,776,795,758,754,-1.84,-9.67,1.39,-0.03,0.04,0.00
2024-12-25 18:56:23,831,776,796,757,755,-1.77,-9.65,1.42,-0.04,0.03,-0.02
2024-12-25 18:56:23,829,776,796,758,756,-1.83,-9.61,1.39,-0.11,0.12,-0.07
2024-12-25 18:56:23,832,775,796,758,756,-2.25,-9.52,1.29,0.03,0.04,-0.12
2024-12-25 18:56:24,831,775,798,759,756,-1.46,-9.92,1.04,-0.10,0.29,-0.05
2024-12-25 18:56:24,829,776,797,758,755,-1.23,-9.76,1.22,0.02,0.02,-0.09
2024-12-25 18:56:24,828,775,794,758,754,-1.79,-9.93,1.46,-0.07,0.07,-0.01
2024-12-25 18:56:24,832,777,795,758,757,-1.41,-9.62,0.96,-0.04,-0.03,0.06
2024-12-25 18:56:24,830,775,794,756,753,-1.61,-9.70,1.16,-0.03,-0.02,0.05
2024-12-25 18:56:24,831,774,796,757,755,-1.64,-9.76,1.23,-0.01,0.02,-0.04
2024-12-25 18:56:25,829,775,795,757,755,-1.50,-9.78,1.22,-0.04,0.07,-0.05
2024-12-25 18:56:25,829,774,796,756,756,-1.50,-9.77,1.26,-0.02,0.04,0.01
2024-12-25 18:56:25,831,775,797,758,755,-1.55,-9.76,1.27,-0.01,-0.01,0.02
2024-12-25 18:56:25,830,774,798,758,754,-1.67,-9.69,1.36,-0.08,-0.02,0.01
2024-12-25 18:56:25,830,775,796,758,754,-1.68,-9.63,1.17,-0.09,0.06,-0.05
2024-12-25 18:56:26,829,774,797,758,754,-1.51,-9.73,1.24,0.01,0.05,-0.05
2024-12-25 18:56:26,830,775,796,758,755,-1.69,-9.87,1.45,-0.03,0.03,0.00
2024-12-25 18:56:26,830,774,797,756,755,-1.48,-9.63,1.09,-0.06,0.03,-0.01
2024-12-25 18:56:26,831,775,797,757,754,-1.62,-9.71,1.32,-0.02,0.02,-0.02
2024-12-25 18:56:26,830,776,796,758,754,-1.60,-9.73,1.28,0.01,0.01,-0.01
2024-12-25 18:56:27,830,775,796,758,755,-1.63,-9.86,1.36,-0.01,-0.03,0.02
2024-12-25 18:56:27,829,776,795,757,754,-1.77,-9.54,1.43,-0.08,-0.03,0.01
2024-12-25 18:56:27,829,776,794,757,755,-1.69,-9.80,1.40,0.02,0.09,-0.02
2024-12-25 18:56:27,829,776,798,757,755,-1.52,-9.77,1.32,-0.04,0.03,0.00
2024-12-25 18:56:27,830,776,796,757,755,-1.66,-9.75,1.60,-0.05,0.00,0.00
2024-12-25 18:56:27,828,776,794,756,755,-1.61,-9.61,1.30,-0.04,-0.02,0.01
2024-12-25 18:56:28,831,776,796,757,755,-1.76,-9.65,1.44,-0.04,0.03,-0.01
2024-12-25 18:56:28,830,775,797,758,755,-1.66,-9.61,1.34,-0.07,0.01,-0.01
2024-12-25 18:56:28,829,776,796,757,755,-1.70,-9.65,1.45,-0.02,0.04,0.00
2024-12-25 18:56:28,829,775,796,759,754,-1.64,-9.65,1.32,-0.04,0.00,-0.02
2024-12-25 18:56:28,828,774,796,756,754,-1.69,-9.56,1.65,-0.06,0.03,-0.03
2024-12-25 18:56:29,832,774,797,755,754,-1.86,-9.72,1.39,0.00,0.01,-0.03
2024-12-25 18:56:29,833,774,797,759,756,-1.64,-9.74,1.52,-0.02,0.03,-0.02
2024-12-25 18:56:29,830,775,798,757,754,-1.91,-9.83,1.52,-0.04,0.11,-0.02
2024-12-25 18:56:29,830,775,796,758,755,-1.32,-9.62,1.34,-0.09,0.04,-0.05
2024-12-25 18:56:29,830,776,796,757,755,-1.69,-9.68,1.49,0.04,-0.05,0.03
2024-12-25 18:56:30,829,773,796,758,756,-1.85,-9.74,1.64,-0.03,-0.03,0.04
2024-12-25 18:56:30,830,776,795,758,755,-1.95,-9.51,1.72,0.00,-0.02,0.01
