Timestamp,Flex1,Flex2,Flex3,Flex4,Flex5,AccelX,AccelY,AccelZ,GyroX,GyroY,GyroZ
2024-12-25 18:58:42,778,883,920,847,797,-2.53,-8.60,6.05,-0.31,0.03,-0.02
2024-12-25 18:58:42,776,884,921,851,800,-1.34,-7.92,5.36,0.04,0.30,-0.09
2024-12-25 18:58:42,778,886,925,856,804,-1.99,-8.23,5.27,-0.01,0.08,0.08
2024-12-25 18:58:42,779,885,927,856,804,-2.97,-7.94,5.02,0.14,0.07,0.03
2024-12-25 18:58:42,778,883,923,853,801,-2.99,-8.07,6.03,-0.03,-0.01,-0.02
2024-12-25 18:58:42,778,882,925,855,803,-2.58,-8.05,5.58,-0.11,-0.01,0.01
2024-12-25 18:58:42,777,880,924,857,803,-2.73,-8.06,5.82,-0.02,0.07,0.06
2024-12-25 18:58:42,776,851,910,838,781,-2.96,-7.95,5.71,0.10,-0.05,0.05
2024-12-25 18:58:42,776,869,921,845,792,-2.86,-8.03,5.77,-0.12,0.01,-0.03
2024-12-25 18:58:42,780,887,929,863,809,-2.88,-8.07,5.61,-0.13,-0.00,-0.02
2024-12-25 18:58:42,777,882,927,860,809,-2.83,-8.11,5.44,0.06,-0.07,0.08
2024-12-25 18:58:42,779,873,924,853,801,-2.79,-7.93,5.32,-0.22,-0.06,0.02
2024-12-25 18:58:42,778,873,921,850,798,-2.91,-8.06,5.41,-0.08,-0.00,-0.06
2024-12-25 18:58:42,777,807,881,815,776,-2.72,-8.30,5.37,0.79,0.50,-0.17
2024-12-25 18:58:42,774,783,818,783,770,-3.25,-7.16,6.55,0.22,0.14,-0.09
2024-12-25 18:58:42,775,820,885,812,775,-2.49,-7.88,6.02,-0.36,0.11,-0.20
2024-12-25 18:58:42,779,879,921,846,799,-2.73,-7.99,5.75,-0.40,-0.12,0.01
2024-12-25 18:58:42,777,825,891,817,784,-2.60,-8.62,5.72,1.59,0.33,-0.05
2024-12-25 18:58:42,770,784,831,784,767,-2.75,-7.10,7.22,-0.17,0.23,-0.09
2024-12-25 18:58:42,775,832,883,810,776,-2.65,-7.68,6.50,-0.39,-0.04,0.04
2024-12-25 18:58:42,792,875,905,825,779,-3.00,-7.72,5.89,-0.08,0.02,0.11
2024-12-25 18:58:42,816,871,903,824,780,-3.14,-7.53,6.45,-0.10,-0.01,0.02
2024-12-25 18:58:42,830,876,906,827,781,-3.00,-7.74,5.91,-0.28,-0.08,0.00
2024-12-25 18:58:42,780,814,865,802,775,-3.00,-7.47,6.34,0.18,0.25,-0.14
2024-12-25 18:58:42,767,795,850,795,776,-3.24,-7.41,6.38,-0.07,0.05,-0.08
2024-12-25 18:58:42,778,805,859,801,776,-3.08,-7.17,6.14,-0.13,-0.08,-0.02
2024-12-25 18:58:42,794,815,865,802,776,-3.18,-7.51,6.29,-0.11,0.05,-0.16
2024-12-25 18:58:42,777,808,862,802,776,-2.79,-7.71,6.23,-0.08,0.03,-0.13
2024-12-25 18:58:42,776,841,897,819,779,-2.51,-8.11,6.24,-0.36,-0.06,-0.12
2024-12-25 18:58:42,782,873,918,847,799,-1.79,-8.98,5.00,-0.61,-0.16,-0.03
2024-12-25 18:58:42,790,882,928,850,797,-2.42,-8.61,4.42,-0.08,0.00,-0.06
2024-12-25 18:58:42,791,882,924,852,801,-2.15,-8.60,4.72,-0.02,0.02,-0.01
2024-12-25 18:58:42,791,881,923,853,799,-2.26,-8.67,4.71,-0.04,-0.03,-0.01
2024-12-25 18:58:42,792,881,922,850,797,-2.30,-8.57,4.81,-0.07,0.01,-0.04
2024-12-25 18:58:42,794,882,923,850,797,-2.26,-8.60,4.80,-0.04,0.01,-0.01
2024-12-25 18:58:42,795,882,923,848,798,-2.26,-8.68,4.76,-0.03,0.00,-0.02
2024-12-25 18:58:42,794,879,923,847,800,-2.29,-8.66,4.90,-0.04,-0.00,-0.01
2024-12-25 18:58:42,795,883,921,852,799,-3.54,-8.44,5.00,-0.12,0.15,0.15
2024-12-25 18:58:42,790,880,924,852,798,-2.61,-8.20,4.66,0.06,1.01,-0.19
2024-12-25 18:58:42,791,879,921,849,798,-2.21,-8.80,3.79,0.43,0.81,-0.41
2024-12-25 18:58:42,790,880,924,851,797,-2.14,-8.54,4.99,0.29,0.30,-0.16
2024-12-25 18:58:42,790,880,924,851,796,-2.59,-8.57,4.22,0.33,0.59,-0.38
2024-12-25 18:58:42,790,878,920,849,795,-2.68,-7.73,5.44,1.03,0.67,-0.10
2024-12-25 18:58:42,791,879,920,849,794,-4.32,-6.56,6.94,0.32,0.51,-0.63
2024-12-25 18:58:42,794,881,923,850,795,-1.54,-7.03,7.34,0.12,0.18,-0.36
2024-12-25 18:58:42,790,880,920,848,793,-2.29,-7.47,6.29,-0.01,-0.07,0.01
2024-12-25 18:58:42,793,879,921,848,793,-2.45,-7.54,6.40,-0.20,-0.00,-0.05
2024-12-25 18:58:42,790,880,919,846,792,-2.18,-7.69,6.50,-0.06,-0.01,0.01
2024-12-25 18:58:42,790,879,921,847,793,-2.25,-7.78,6.35,-0.11,-0.06,-0.07
2024-12-25 18:58:42,784,863,906,832,784,5.78,-4.43,10.32,1.66,-2.58,1.22
2024-12-25 18:58:42,776,796,825,783,772,-1.04,-5.38,7.85,-0.21,-1.51,2.78
2024-12-25 18:58:42,775,788,812,776,771,-3.72,-4.27,12.45,-0.04,-0.37,0.82
2024-12-25 18:58:42,776,792,822,783,774,-3.40,-5.32,8.10,-0.87,0.81,0.12
2024-12-25 18:58:42,779,796,821,785,773,-2.57,-0.02,6.93,1.03,0.11,0.05
2024-12-25 18:58:42,783,795,821,786,774,-2.75,-3.41,9.30,1.45,-0.37,-0.02
2024-12-25 18:58:42,781,796,823,786,773,-2.13,-2.91,11.83,0.93,0.16,-0.08
2024-12-25 18:58:42,779,797,823,787,774,-2.87,-0.13,10.18,-0.03,0.04,-0.07
2024-12-25 18:58:42,778,796,819,781,771,-1.63,-1.62,10.50,0.54,-0.18,-0.15
2024-12-25 18:58:42,777,825,852,793,771,-1.78,-1.16,10.04,-0.73,0.21,-0.15
2024-12-25 18:58:42,781,814,843,788,773,-1.68,-1.43,10.32,1.22,-0.02,0.01
2024-12-25 18:58:42,777,779,794,763,765,-1.87,0.14,10.82,0.54,0.13,0.01
2024-12-25 18:58:42,780,782,792,764,765,-2.02,0.57,9.77,-0.28,0.25,-0.16
2024-12-25 18:58:42,781,788,799,770,767,-1.97,0.29,9.62,-0.41,0.26,0.12
2024-12-25 18:58:42,783,790,806,773,767,-2.63,0.22,10.23,-0.14,0.09,0.08
2024-12-25 18:58:42,780,794,820,780,769,-2.38,-0.08,10.26,-0.18,-0.05,-0.00
2024-12-25 18:58:42,781,799,831,783,770,-2.90,-0.39,10.24,-0.24,0.04,0.06
2024-12-25 18:58:42,781,801,832,787,771,-2.51,-0.44,10.33,-0.07,-0.25,-0.16
2024-12-25 18:58:42,785,804,835,788,772,-0.90,-0.26,10.41,0.15,-0.10,-0.04
2024-12-25 18:58:42,786,803,835,788,772,-1.74,-0.19,10.45,0.06,-0.05,0.11
2024-12-25 18:58:42,789,803,834,789,771,-1.67,-0.35,10.45,-0.20,0.12,-0.05
2024-12-25 18:58:42,789,803,831,787,772,-2.38,-0.67,10.65,-0.17,-0.09,-0.12
2024-12-25 18:58:42,789,799,818,783,769,-1.96,-2.05,10.37,-0.39,-0.48,0.04
2024-12-25 18:58:42,787,795,810,779,768,1.83,-1.23,10.48,-0.28,-0.83,0.12
2024-12-25 18:58:42,786,796,810,779,767,0.59,-2.10,9.87,-0.06,0.47,0.05
2024-12-25 18:58:42,786,796,820,782,768,0.92,-1.79,10.62,-0.04,0.24,0.02
2024-12-25 18:58:42,786,798,819,782,769,0.87,-1.83,10.39,-0.13,0.16,0.02
2024-12-25 18:58:42,785,797,823,784,769,0.38,-1.70,10.43,-0.02,0.11,-0.01
2024-12-25 18:58:42,788,799,825,785,769,0.56,-2.05,10.58,0.03,0.10,0.11
2024-12-25 18:58:42,787,798,824,786,769,-0.49,-1.96,10.28,-0.02,0.22,0.09
2024-12-25 18:58:42,786,798,823,786,770,-0.03,-2.11,10.30,-0.00,0.03,-0.10
2024-12-25 18:58:42,786,798,821,786,770,0.22,-2.02,10.67,-0.41,-0.39,0.22
2024-12-25 18:58:42,788,798,825,787,769,-0.17,-1.87,9.91,0.12,0.26,-0.22
2024-12-25 18:58:42,786,798,828,787,771,-0.47,-1.90,10.10,-0.18,1.08,-0.13
2024-12-25 18:58:42,786,801,830,789,770,-1.81,-1.99,10.93,0.09,0.17,-0.04
2024-12-25 18:58:42,785,800,831,788,771,-1.63,-1.94,9.90,-0.16,0.19,0.10
2024-12-25 18:58:42,786,800,830,787,770,-2.52,-1.82,10.40,-0.02,0.14,0.08
2024-12-25 18:58:42,785,802,830,789,771,-2.32,-1.73,10.22,0.04,-0.04,0.01
2024-12-25 18:58:42,787,800,830,789,772,-2.16,-1.85,10.08,-0.10,0.06,-0.09
2024-12-25 18:58:42,785,799,831,789,772,-2.62,-2.07,10.00,-0.14,0.05,-0.02
2024-12-25 18:58:42,788,801,831,790,772,-2.15,-2.00,10.09,-0.01,0.01,-0.01
2024-12-25 18:58:42,786,801,832,788,771,-2.22,-2.13,10.14,-0.16,0.05,0.02
2024-12-25 18:58:42,786,801,832,788,771,-2.33,-2.09,10.14,0.01,-0.02,-0.01
2024-12-25 18:58:43,788,802,832,787,771,-2.25,-2.16,10.02,-0.01,-0.00,-0.01
2024-12-25 18:58:43,789,801,831,788,770,-2.31,-2.04,10.13,0.01,-0.02,-0.01
2024-12-25 18:58:43,788,801,832,788,771,-2.31,-2.01,10.11,-0.02,0.03,-0.02
2024-12-25 18:58:43,787,801,833,787,769,-2.30,-2.09,10.03,-0.04,0.00,-0.01
2024-12-25 18:58:43,788,800,833,786,772,-2.23,-2.38,10.05,-0.07,0.08,-0.00
2024-12-25 18:58:43,788,801,833,788,771,-2.43,-2.07,10.17,0.05,0.02,0.05
2024-12-25 18:58:43,787,800,832,788,771,-2.17,-1.88,10.16,-0.07,0.04,0.00
2024-12-25 18:58:43,787,801,832,789,771,-2.23,-2.06,9.95,-0.11,0.05,-0.03
2024-12-25 18:58:43,786,799,835,790,771,-2.18,-2.17,10.15,-0.06,-0.01,-0.04
2024-12-25 18:58:43,786,800,833,788,771,-2.39,-2.20,10.16,-0.00,-0.00,-0.04
2024-12-25 18:58:43,786,801,833,789,772,-2.47,-1.75,10.32,0.09,0.02,0.02
2024-12-25 18:58:43,788,803,833,787,770,-1.84,-1.49,10.30,-0.01,-0.15,-0.14
2024-12-25 18:58:43,787,801,834,788,770,-1.86,-1.61,10.14,-0.03,-0.07,-0.03
2024-12-25 18:58:43,786,802,834,787,770,-2.27,-2.27,9.69,-0.12,0.14,0.05
2024-12-25 18:58:43,788,802,835,790,771,-2.19,-2.02,9.93,-0.06,0.04,0.01
2024-12-25 18:58:43,787,802,833,787,771,-2.12,-1.83,10.09,0.01,0.08,0.03
2024-12-25 18:58:43,788,800,834,789,770,-2.05,-2.01,10.18,-0.01,0.08,0.03
2024-12-25 18:58:43,789,803,835,788,772,-2.10,-2.27,10.03,0.05,0.00,0.03
2024-12-25 18:58:43,787,799,833,789,770,-1.78,-1.91,10.38,-0.11,0.04,-0.11
2024-12-25 18:58:43,787,801,832,790,771,-1.78,-1.95,10.06,-0.06,0.04,-0.01
2024-12-25 18:58:43,787,802,833,790,770,-1.76,-2.10,10.07,-0.04,0.09,0.02
2024-12-25 18:58:43,788,800,833,789,771,-1.92,-2.35,9.80,-0.10,0.05,-0.03
2024-12-25 18:58:43,786,801,833,791,771,-2.00,-1.80,10.46,-0.18,-0.04,-0.05
2024-12-25 18:58:43,787,799,834,786,772,-1.59,-2.09,10.07,-0.09,0.04,-0.17
2024-12-25 18:58:43,787,802,833,788,771,-2.21,-2.54,10.12,-0.27,0.20,-0.14
2024-12-25 18:58:43,787,800,835,790,772,-2.10,-2.81,10.06,-0.16,0.12,-0.20
2024-12-25 18:58:43,789,801,835,790,772,-1.92,-2.93,10.02,-0.22,0.01,-0.07
2024-12-25 18:58:43,786,800,834,790,772,-1.22,-3.86,8.87,-0.11,0.04,-0.16
2024-12-25 18:58:43,786,801,833,789,770,-2.24,-3.60,9.75,0.47,0.17,0.47
2024-12-25 18:58:43,782,789,797,777,771,-3.28,-0.20,10.52,1.39,0.19,0.20
2024-12-25 18:58:43,770,777,785,765,767,-3.31,0.85,10.50,0.47,0.07,-0.01
2024-12-25 18:58:43,766,775,782,763,768,-2.79,1.47,9.85,0.05,-0.02,-0.19
2024-12-25 18:58:43,766,774,782,763,767,-2.90,1.60,10.32,0.10,0.08,-0.15
2024-12-25 18:58:43,767,775,784,764,766,-2.69,1.37,9.68,-0.01,-0.07,-0.06
2024-12-25 18:58:43,769,776,781,763,765,-2.70,1.48,9.97,0.00,-0.01,-0.02
2024-12-25 18:58:43,769,776,785,764,765,-3.04,1.22,10.12,-0.14,0.11,-0.02
2024-12-25 18:58:43,769,777,786,766,765,-3.00,1.02,10.13,-0.07,-0.08,-0.07
2024-12-25 18:58:43,769,778,786,764,767,-2.21,1.32,10.33,-0.07,0.08,-0.08
2024-12-25 18:58:43,772,780,787,763,765,-3.14,1.07,10.16,0.06,-0.04,0.03
2024-12-25 18:58:43,770,779,787,766,765,-2.90,0.88,10.14,-0.24,0.01,-0.01
2024-12-25 18:58:43,771,780,786,763,765,-2.06,1.08,9.94,-0.41,0.32,-0.09
2024-12-25 18:58:43,772,778,787,764,767,-2.99,0.66,9.45,-0.21,0.05,0.07
2024-12-25 18:58:43,774,779,787,763,767,-2.47,0.65,9.68,0.32,-0.04,-0.02
2024-12-25 18:58:43,772,775,785,762,765,-2.94,1.48,11.09,0.06,-0.18,-0.10
2024-12-25 18:58:43,773,777,784,763,765,-1.96,1.50,9.77,0.04,0.03,-0.01
2024-12-25 18:58:43,776,778,786,763,765,-2.43,1.42,10.38,-0.13,0.01,0.10
2024-12-25 18:58:43,775,779,787,765,765,-2.57,1.53,9.90,0.11,-0.04,-0.03
2024-12-25 18:58:43,773,777,785,764,765,-2.09,1.52,10.28,0.03,0.04,-0.05
2024-12-25 18:58:43,776,777,786,764,765,-2.43,1.51,10.34,-0.04,0.07,0.06
2024-12-25 18:58:43,778,780,787,766,767,-1.98,1.60,10.25,-0.16,0.07,-0.06
2024-12-25 18:58:43,777,779,787,765,767,-2.87,1.44,9.98,-0.04,0.26,0.08
2024-12-25 18:58:43,777,779,788,766,766,-2.14,0.78,10.48,0.06,0.05,0.10
2024-12-25 18:58:43,776,781,788,765,764,-2.02,2.17,9.97,-0.05,0.15,0.05
2024-12-25 18:58:43,777,782,790,767,766,-2.53,1.54,10.10,-0.13,-0.04,-0.01
2024-12-25 18:58:43,776,781,790,765,764,-2.39,0.88,9.89,-0.13,-0.05,0.07
2024-12-25 18:58:43,775,781,791,768,765,-2.45,1.39,10.21,-0.03,-0.10,-0.03
2024-12-25 18:58:43,777,783,791,768,766,-2.49,1.18,10.15,-0.18,0.08,-0.08
2024-12-25 18:58:43,773,779,788,766,765,-2.79,1.03,10.11,0.13,-0.02,-0.00
2024-12-25 18:58:43,771,778,786,766,766,-2.18,1.28,10.17,-0.08,-0.01,-0.15
2024-12-25 18:58:43,768,777,787,764,766,-2.00,1.18,10.47,-0.31,-0.35,-0.25
2024-12-25 18:58:43,769,778,787,764,766,-1.68,0.76,10.26,-0.02,-0.06,0.00
2024-12-25 18:58:43,770,779,787,765,766,-1.66,1.19,10.16,0.02,-0.08,0.07
2024-12-25 18:58:43,769,781,787,764,766,-1.40,1.01,9.54,-0.12,0.03,-0.05
2024-12-25 18:58:43,771,783,789,765,766,-2.17,1.54,10.98,0.01,-0.07,-0.18
2024-12-25 18:58:43,770,784,791,765,766,-1.74,1.11,10.47,-0.11,0.05,0.02
2024-12-25 18:58:43,770,782,788,764,765,-2.16,0.95,10.51,0.07,0.03,0.02
2024-12-25 18:58:43,770,782,790,765,766,-1.77,1.38,10.90,-0.26,-0.28,-0.10
2024-12-25 18:58:43,781,805,833,785,766,-2.38,-0.69,11.53,-2.66,0.16,-0.53
2024-12-25 18:58:43,778,852,892,819,776,-3.22,-5.10,8.02,-1.92,1.27,-0.27
2024-12-25 18:58:43,779,892,919,846,791,-2.37,-7.83,6.13,-0.87,0.70,-0.44
2024-12-25 18:58:44,778,894,922,848,792,-1.78,-8.25,4.91,-0.08,0.81,-0.61
2024-12-25 18:58:44,780,888,922,849,794,-1.55,-8.51,4.53,0.04,0.52,-0.24
2024-12-25 18:58:44,778,893,922,849,793,-2.60,-8.64,4.22,0.06,0.23,-0.04
2024-12-25 18:58:44,781,894,921,846,791,-2.76,-8.62,4.50,0.19,0.04,0.08
2024-12-25 18:58:44,789,890,921,846,789,-3.32,-8.20,4.94,0.25,0.08,0.12
2024-12-25 18:58:44,803,892,919,845,789,-3.40,-8.12,5.07,-0.12,0.01,-0.02
2024-12-25 18:58:45,806,892,923,846,790,-3.63,-8.10,5.02,-0.13,0.10,-0.02
2024-12-25 18:58:45,804,889,917,845,787,-3.35,-8.10,4.47,0.04,-0.01,-0.02
2024-12-25 18:58:45,802,888,921,847,789,-3.42,-8.21,4.77,-0.04,0.01,-0.03
2024-12-25 18:58:45,802,886,921,845,788,-3.34,-8.18,4.84,-0.03,-0.00,-0.03
2024-12-25 18:58:45,800,885,919,846,791,-3.46,-8.18,4.88,-0.08,0.05,-0.02
2024-12-25 18:58:46,800,887,928,861,803,-3.57,-8.00,5.09,-0.30,0.02,0.03
2024-12-25 18:58:46,793,890,929,867,816,-3.33,-8.06,4.48,-0.48,-0.18,0.02
2024-12-25 18:58:46,789,896,929,873,827,-3.72,-9.04,3.15,-0.34,-0.04,-0.05
2024-12-25 18:58:46,792,898,932,872,824,-3.33,-8.71,3.26,0.01,0.12,-0.04
2024-12-25 18:58:46,790,895,931,869,819,-3.25,-8.68,3.89,0.02,0.03,-0.05
2024-12-25 18:58:47,788,890,926,865,815,-3.33,-8.52,3.86,0.03,-0.01,-0.01
2024-12-25 18:58:47,788,891,929,868,817,-3.22,-8.57,4.15,-0.09,-0.10,-0.05
2024-12-25 18:58:47,788,888,925,864,813,-3.03,-8.03,4.14,-0.08,-0.34,-0.01
2024-12-25 18:58:47,788,888,931,865,815,-3.47,-8.75,4.68,-0.31,0.36,0.04
2024-12-25 18:58:47,793,889,927,867,814,-2.63,-8.94,2.59,-0.13,0.22,0.03
2024-12-25 18:58:48,797,888,926,864,816,-3.55,-8.47,3.20,-0.02,-0.04,-0.04
2024-12-25 18:58:48,794,890,928,864,815,-3.65,-9.02,3.31,0.13,0.05,0.08
2024-12-25 18:58:48,790,888,924,864,812,-3.77,-8.86,3.53,0.14,0.19,0.03
2024-12-25 18:58:48,792,887,925,861,811,-3.74,-8.31,4.06,0.42,0.04,0.19
2024-12-25 18:58:48,790,884,921,862,811,-3.45,-8.79,4.47,-0.13,-0.12,-0.28
2024-12-25 18:58:48,792,888,929,863,812,-2.64,-9.22,4.02,0.15,-0.03,-0.08
2024-12-25 18:58:49,790,887,925,863,811,-2.72,-8.82,3.90,-0.08,0.07,-0.09
2024-12-25 18:58:49,792,886,926,862,812,-3.13,-8.68,4.44,-0.02,0.14,0.02
2024-12-25 18:58:49,790,888,927,862,813,-3.04,-8.86,3.87,-0.16,0.04,-0.04
2024-12-25 18:58:49,789,884,925,861,811,-3.07,-8.70,4.26,-0.16,0.08,-0.14
2024-12-25 18:58:49,789,884,926,861,811,-2.59,-8.78,3.63,-0.32,-0.03,-0.03
2024-12-25 18:58:50,788,886,926,861,811,-2.51,-9.05,3.96,0.03,-0.06,-0.02
2024-12-25 18:58:50,787,885,923,861,810,-2.69,-8.83,3.59,0.01,-0.02,-0.00
2024-12-25 18:58:50,789,886,926,862,811,-3.17,-8.77,4.21,-0.07,0.01,0.03
2024-12-25 18:58:50,789,885,924,860,811,-2.96,-8.59,3.77,-0.08,-0.05,-0.00
2024-12-25 18:58:50,788,883,925,860,811,-2.54,-9.26,4.03,0.06,0.01,0.08
2024-12-25 18:58:50,789,884,925,862,811,-3.31,-8.57,3.85,-0.18,-0.09,-0.04
2024-12-25 18:58:51,788,887,924,860,810,-2.90,-9.18,4.01,0.01,0.11,0.06
2024-12-25 18:58:51,788,884,923,860,810,-3.05,-8.51,3.69,-0.10,-0.00,0.01
2024-12-25 18:58:51,789,888,925,861,812,-2.92,-8.85,3.95,0.02,0.10,-0.06
2024-12-25 18:58:51,789,886,923,861,809,-2.89,-8.67,3.99,-0.05,0.03,0.03
2024-12-25 18:58:51,791,885,923,860,810,-2.85,-8.80,3.82,-0.09,-0.05,-0.01
2024-12-25 18:58:52,788,886,925,861,811,-3.05,-8.69,3.74,-0.00,0.02,-0.03
2024-12-25 18:58:52,786,884,923,858,810,-3.04,-9.09,3.89,-0.10,0.13,-0.05
2024-12-25 18:58:52,789,886,925,859,811,-3.02,-8.72,3.66,-0.10,-0.04,-0.01
2024-12-25 18:58:52,786,885,922,860,808,-3.26,-8.82,3.63,-0.02,0.05,0.04
2024-12-25 18:58:52,789,883,923,860,808,-3.02,-8.92,3.64,-0.03,0.07,0.04
2024-12-25 18:58:53,788,885,924,859,809,-3.06,-8.67,3.73,-0.04,0.11,-0.05
2024-12-25 18:58:53,790,884,926,860,809,-3.00,-9.00,3.37,-0.08,0.02,0.03
2024-12-25 18:58:53,788,885,922,857,809,-3.11,-8.76,3.60,0.01,-0.09,0.03
2024-12-25 18:58:53,789,886,925,859,808,-2.96,-9.02,3.34,-0.08,0.09,-0.04
2024-12-25 18:58:53,789,884,922,860,808,-3.16,-8.75,3.56,0.04,-0.02,-0.00
2024-12-25 18:58:53,788,882,922,858,809,-2.99,-8.95,3.64,0.02,-0.05,0.01
2024-12-25 18:58:54,789,882,922,857,808,-2.97,-8.84,3.59,-0.06,0.05,-0.07
2024-12-25 18:58:54,789,884,921,860,808,-3.00,-8.83,3.54,-0.06,0.03,-0.03
2024-12-25 18:58:54,788,882,923,856,807,-2.99,-8.85,3.52,-0.03,0.03,-0.02
2024-12-25 18:58:54,789,884,923,858,808,-3.25,-8.86,3.53,-0.06,0.07,-0.05
2024-12-25 18:58:54,789,881,922,858,807,-2.70,-8.90,3.35,-0.04,0.07,-0.06
2024-12-25 18:58:55,790,884,921,859,808,-3.03,-9.00,3.48,-0.08,0.01,-0.01
2024-12-25 18:58:55,791,882,925,858,810,-2.83,-9.04,3.32,-0.03,-0.00,-0.03
2024-12-25 18:58:55,790,885,923,858,808,-2.82,-9.06,3.48,-0.04,0.04,-0.06
2024-12-25 18:58:55,790,885,923,857,807,-2.97,-9.06,3.35,-0.03,0.01,0.00
2024-12-25 18:58:55,790,885,921,856,811,-2.89,-8.74,3.60,-0.03,0.14,0.02
2024-12-25 18:58:56,789,882,920,857,807,-3.01,-9.05,3.42,-0.08,0.00,-0.02
2024-12-25 18:58:56,790,881,921,857,808,-2.96,-8.94,3.11,0.06,0.03,-0.06
2024-12-25 18:58:56,789,884,925,858,810,-2.96,-8.93,3.49,0.01,-0.00,-0.07
2024-12-25 18:58:56,791,882,919,855,807,-2.94,-9.15,3.29,-0.10,0.10,0.02
2024-12-25 18:58:56,787,881,920,858,810,-2.80,-9.72,3.38,-0.06,0.13,-0.28
2024-12-25 18:58:56,792,882,924,855,808,-2.37,-8.50,3.09,-0.15,-0.07,0.22
2024-12-25 18:58:57,788,880,921,857,808,-2.49,-9.32,2.95,0.13,0.02,-0.04
2024-12-25 18:58:57,789,881,922,857,810,-2.11,-9.13,3.34,0.07,0.12,0.19
2024-12-25 18:58:57,788,882,924,855,808,-2.88,-9.27,3.11,0.01,-0.09,-0.03
2024-12-25 18:58:57,788,883,920,856,807,-2.96,-8.89,3.76,-0.05,0.02,-0.02
2024-12-25 18:58:57,788,881,922,856,806,-2.77,-9.08,3.43,-0.05,0.13,-0.02
2024-12-25 18:58:58,790,884,920,855,805,-2.56,-9.12,3.15,-0.08,0.00,-0.01
2024-12-25 18:58:58,789,880,921,854,804,-2.60,-9.02,3.30,-0.09,0.09,-0.00
2024-12-25 18:58:58,788,881,921,854,805,-2.88,-9.27,3.21,-0.07,-0.01,-0.03
2024-12-25 18:58:58,788,882,919,854,804,-2.83,-8.91,2.76,-0.13,-0.07,-0.05
2024-12-25 18:58:58,789,882,919,855,804,-2.71,-9.24,2.96,0.05,0.02,0.01
2024-12-25 18:58:59,789,884,923,856,806,-2.95,-9.05,3.37,-0.10,0.07,-0.07
2024-12-25 18:58:59,789,881,919,855,805,-2.58,-9.19,2.83,-0.04,-0.00,0.08
2024-12-25 18:58:59,789,883,922,853,804,-2.83,-9.15,3.29,0.02,-0.10,0.00
2024-12-25 18:58:59,791,883,921,857,805,-2.82,-9.04,3.00,-0.03,0.01,-0.00
2024-12-25 18:58:59,788,879,919,853,806,-2.70,-9.02,3.44,0.00,0.01,-0.04
2024-12-25 18:58:59,789,881,919,856,806,-2.65,-9.19,3.26,-0.05,0.06,-0.04
2024-12-25 18:59:00,790,884,922,856,806,-2.69,-9.09,3.30,-0.07,0.03,0.01
2024-12-25 18:59:00,789,882,920,854,806,-2.62,-9.06,3.19,-0.03,0.02,-0.02
2024-12-25 18:59:00,788,881,920,853,806,-3.12,-9.19,3.28,-0.04,0.06,-0.01
2024-12-25 18:59:00,791,881,922,856,806,-2.56,-9.16,2.89,-0.08,0.06,0.02
2024-12-25 18:59:00,788,882,921,855,804,-2.69,-9.22,3.11,-0.09,0.06,-0.00
2024-12-25 18:59:01,791,882,920,854,806,-3.00,-9.06,2.89,-0.19,0.01,-0.03
2024-12-25 18:59:01,787,884,922,853,805,-2.83,-9.16,2.87,-0.07,0.10,0.06
2024-12-25 18:59:01,788,881,921,853,806,-2.65,-9.08,2.83,0.01,-0.05,0.02
2024-12-25 18:59:01,786,876,919,852,804,-3.13,-9.05,3.22,-0.02,0.01,-0.09
2024-12-25 18:59:01,790,879,920,856,805,-2.57,-9.26,2.66,-0.04,0.05,-0.08
2024-12-25 18:59:02,787,877,920,849,804,-2.77,-9.23,2.79,0.01,-0.02,-0.01
2024-12-25 18:59:02,786,878,917,854,805,-2.37,-9.15,2.95,0.07,0.06,0.02
2024-12-25 18:59:02,789,877,920,853,804,-2.79,-9.19,3.19,0.06,-0.01,0.04
2024-12-25 18:59:02,786,876,917,853,804,-2.66,-9.16,3.02,-0.06,0.02,-0.04
2024-12-25 18:59:02,787,875,920,852,802,-2.73,-9.14,3.09,-0.00,0.03,-0.02
2024-12-25 18:59:02,789,877,918,854,804,-2.58,-9.17,3.08,0.02,0.03,0.01
2024-12-25 18:59:03,787,879,920,853,802,-2.81,-9.14,3.32,-0.02,0.00,-0.03
2024-12-25 18:59:03,786,877,919,851,804,-2.56,-9.02,3.16,-0.02,0.03,-0.01
2024-12-25 18:59:03,788,877,918,850,803,-2.69,-9.12,3.42,0.00,0.02,-0.01
2024-12-25 18:59:03,788,877,915,851,804,-2.77,-9.07,3.37,-0.05,0.04,-0.03
2024-12-25 18:59:03,791,877,916,851,804,-2.63,-8.97,3.35,-0.04,0.02,-0.02
2024-12-25 18:59:04,788,876,919,851,803,-2.55,-9.23,3.37,-0.04,0.01,0.02
2024-12-25 18:59:04,789,875,917,851,803,-2.87,-9.13,3.36,-0.07,0.01,0.06
2024-12-25 18:59:04,787,873,914,849,803,-2.77,-9.02,3.31,0.05,0.07,-0.05
2024-12-25 18:59:04,789,874,916,851,803,-2.66,-9.04,3.11,-0.07,-0.01,-0.02
2024-12-25 18:59:04,790,874,916,851,803,-2.96,-9.15,3.56,-0.00,0.02,-0.02
2024-12-25 18:59:05,787,876,917,851,803,-2.79,-8.98,3.33,-0.07,0.08,0.00
2024-12-25 18:59:05,789,874,918,853,805,-2.49,-9.00,3.38,-0.11,-0.09,0.05
2024-12-25 18:59:05,789,873,916,851,804,-2.76,-9.22,3.21,-0.18,0.05,-0.08
2024-12-25 18:59:05,788,875,916,851,804,-2.81,-9.13,3.24,-0.02,0.05,0.02
2024-12-25 18:59:05,788,875,918,850,805,-2.78,-9.08,3.23,0.03,0.03,-0.01
2024-12-25 18:59:05,789,876,917,851,803,-2.84,-9.07,3.29,-0.05,-0.01,0.01
2024-12-25 18:59:06,789,875,919,851,805,-2.70,-8.98,3.31,-0.05,0.05,-0.01
2024-12-25 18:59:06,789,875,916,854,804,-2.79,-9.01,3.25,-0.03,-0.01,0.00
2024-12-25 18:59:06,788,875,917,850,805,-2.83,-9.05,3.31,-0.00,0.03,-0.02
2024-12-25 18:59:06,787,873,918,850,804,-2.81,-9.08,3.37,-0.04,0.01,-0.01
2024-12-25 18:59:06,790,875,919,851,804,-2.77,-9.15,3.42,-0.03,0.04,-0.00
2024-12-25 18:59:07,788,873,917,849,802,-2.98,-8.97,3.24,-0.07,0.01,0.01
2024-12-25 18:59:07,788,875,920,851,805,-3.01,-9.15,3.01,-0.05,0.01,0.06
2024-12-25 18:59:07,789,875,919,850,803,-2.78,-8.79,3.51,-0.02,0.05,0.01
2024-12-25 18:59:07,789,874,916,851,804,-2.89,-8.98,3.53,0.02,-0.07,0.08
2024-12-25 18:59:07,789,876,917,851,802,-2.65,-8.71,3.51,-0.14,0.07,0.03
2024-12-25 18:59:08,790,875,917,851,803,-3.44,-9.02,3.65,-0.07,0.01,-0.02
2024-12-25 18:59:08,790,873,916,850,804,-2.60,-8.88,3.22,-0.10,0.15,-0.09
2024-12-25 18:59:08,788,876,918,852,803,-2.78,-9.02,3.12,-0.05,-0.01,-0.12
2024-12-25 18:59:08,791,874,920,853,804,-3.14,-8.88,3.22,-0.03,-0.04,-0.04
2024-12-25 18:59:08,790,873,919,850,805,-2.52,-9.26,3.06,0.05,0.05,-0.01
2024-12-25 18:59:08,791,875,916,850,804,-2.71,-9.48,3.16,0.02,-0.02,0.02
2024-12-25 18:59:09,790,876,919,849,805,-2.87,-8.98,3.17,-0.06,-0.00,-0.05
2024-12-25 18:59:09,788,876,916,850,802,-2.62,-8.91,3.38,-0.03,0.07,-0.03
2024-12-25 18:59:09,790,876,918,850,804,-2.52,-9.17,3.40,0.07,-0.01,-0.05
2024-12-25 18:59:09,789,874,917,851,803,-2.50,-9.24,3.67,0.01,-0.04,0.15
2024-12-25 18:59:09,789,874,917,850,803,-2.49,-8.63,3.12,-0.24,0.04,0.05
2024-12-25 18:59:10,788,876,918,849,806,-3.02,-8.97,3.43,0.06,0.04,-0.02
2024-12-25 18:59:10,789,878,916,850,804,-2.64,-8.91,3.59,-0.11,-0.12,-0.06
2024-12-25 18:59:10,787,873,918,850,804,-2.94,-8.95,3.05,-0.01,-0.03,0.02
2024-12-25 18:59:10,790,874,918,850,804,-2.79,-9.06,3.87,-0.01,0.06,-0.05
2024-12-25 18:59:10,790,873,915,848,803,-2.64,-8.68,3.46,0.09,-0.00,0.00
2024-12-25 18:59:11,789,874,916,848,804,-2.83,-9.39,3.71,0.11,-0.05,-0.07
2024-12-25 18:59:11,788,877,917,852,803,-2.37,-8.79,3.85,-0.10,0.05,-0.04
2024-12-25 18:59:11,786,876,916,849,803,-2.67,-9.05,3.77,-0.00,0.04,0.06
2024-12-25 18:59:11,790,875,916,849,803,-2.65,-8.92,3.66,-0.07,0.06,-0.04
2024-12-25 18:59:11,792,877,916,852,803,-2.77,-8.99,3.80,-0.12,0.06,-0.05
2024-12-25 18:59:11,788,874,917,850,804,-2.78,-9.15,3.51,-0.11,0.14,0.02
2024-12-25 18:59:12,787,875,917,851,803,-2.49,-8.98,3.35,-0.12,0.04,-0.06
2024-12-25 18:59:12,789,876,917,850,803,-2.77,-9.04,3.39,0.00,-0.03,0.02
2024-12-25 18:59:12,788,874,916,850,803,-2.72,-9.08,3.56,0.01,0.05,-0.02
2024-12-25 18:59:12,789,876,918,850,802,-2.63,-9.11,3.59,-0.04,0.03,-0.01
2024-12-25 18:59:12,790,875,917,851,803,-2.63,-9.05,3.57,-0.01,0.02,-0.01
2024-12-25 18:59:13,790,873,915,848,802,-2.55,-8.94,3.57,-0.03,-0.01,-0.01
2024-12-25 18:59:13,787,876,917,850,803,-2.74,-9.06,3.66,0.01,0.02,-0.02
2024-12-25 18:59:13,788,875,918,850,801,-2.52,-9.02,3.59,-0.05,0.01,-0.01
2024-12-25 18:59:13,787,872,915,849,802,-2.68,-8.99,3.67,-0.01,0.02,-0.01
2024-12-25 18:59:13,788,876,915,851,802,-2.60,-9.09,3.77,-0.06,0.04,-0.07
2024-12-25 18:59:13,786,875,916,849,802,-2.72,-8.89,3.79,0.00,0.01,-0.01
2024-12-25 18:59:14,788,875,915,849,800,-2.47,-9.02,3.80,-0.03,0.04,0.01
2024-12-25 18:59:14,788,873,918,849,803,-2.18,-8.78,3.35,-0.07,0.02,-0.03
2024-12-25 18:59:14,788,876,917,848,803,-2.72,-9.15,4.09,0.02,-0.01,0.03
2024-12-25 18:59:14,787,875,918,846,801,-2.57,-8.82,3.61,-0.06,0.03,0.03
2024-12-25 18:59:14,789,876,918,847,802,-2.69,-9.14,3.73,-0.04,0.05,-0.01
2024-12-25 18:59:15,788,875,916,849,802,-2.70,-8.95,3.60,-0.05,0.02,-0.01
2024-12-25 18:59:15,788,874,916,847,803,-2.58,-9.02,3.78,-0.05,0.04,-0.02
2024-12-25 18:59:15,789,874,917,849,802,-2.55,-9.05,3.55,-0.20,0.14,-0.10
2024-12-25 18:59:15,787,874,916,848,801,-2.46,-9.26,3.20,-0.19,0.06,0.04
2024-12-25 18:59:15,787,875,918,848,801,-2.69,-8.88,3.02,-0.19,0.06,-0.02
2024-12-25 18:59:16,790,875,916,851,801,-2.83,-9.23,2.78,-0.01,0.02,-0.03
2024-12-25 18:59:16,787,878,917,849,800,-2.60,-9.23,2.84,-0.05,0.06,-0.04
2024-12-25 18:59:16,786,876,916,849,802,-2.63,-9.01,2.85,-0.04,0.01,0.05
2024-12-25 18:59:16,789,875,917,848,802,-3.02,-9.26,2.49,-0.06,0.02,-0.05
2024-12-25 18:59:16,788,873,918,849,801,-2.70,-9.23,2.90,-0.03,0.04,-0.04
2024-12-25 18:59:16,787,874,917,850,802,-2.61,-9.30,2.69,0.03,-0.05,-0.06
2024-12-25 18:59:17,794,876,917,849,802,-2.88,-9.31,2.88,-0.07,0.02,0.01
2024-12-25 18:59:17,796,874,916,847,801,-2.66,-9.20,2.70,-0.01,0.03,-0.01
2024-12-25 18:59:17,796,877,914,848,803,-2.74,-9.23,2.72,-0.05,0.02,-0.03
2024-12-25 18:59:17,795,872,916,849,802,-2.74,-9.29,2.97,-0.01,0.05,-0.02
2024-12-25 18:59:17,792,876,917,849,803,-2.88,-9.31,2.74,-0.05,0.02,-0.05
2024-12-25 18:59:18,791,876,915,850,801,-2.50,-9.13,2.85,-0.00,-0.00,0.07
2024-12-25 18:59:18,790,874,915,848,802,-2.61,-9.21,2.87,0.02,-0.07,0.03
2024-12-25 18:59:18,792,873,917,847,802,-2.58,-9.25,2.99,-0.02,0.03,-0.01
2024-12-25 18:59:18,789,874,917,849,802,-2.75,-9.11,3.07,-0.06,-0.01,-0.01
2024-12-25 18:59:18,790,874,916,848,801,-2.65,-9.08,2.96,-0.00,0.02,-0.09
2024-12-25 18:59:19,790,874,916,849,802,-2.75,-9.13,3.47,0.04,-0.00,-0.04
2024-12-25 18:59:19,790,873,915,847,801,-2.67,-9.16,3.22,-0.07,0.02,0.01
2024-12-25 18:59:19,790,875,916,848,800,-2.50,-9.17,3.03,-0.03,0.00,-0.03
2024-12-25 18:59:19,790,874,917,849,802,-2.29,-9.12,3.27,-0.11,0.11,-0.02
2024-12-25 18:59:19,789,874,917,849,801,-2.51,-9.20,2.98,-0.01,0.05,0.06
2024-12-25 18:59:19,789,871,915,848,801,-2.57,-9.18,3.20,-0.05,0.02,-0.03
2024-12-25 18:59:20,790,875,916,848,802,-2.63,-9.16,3.07,-0.04,0.02,-0.04
2024-12-25 18:59:20,792,873,916,848,802,-2.55,-9.21,3.15,-0.05,-0.01,-0.01
2024-12-25 18:59:20,790,874,917,848,802,-2.58,-9.17,3.08,-0.03,0.03,-0.01
2024-12-25 18:59:20,789,873,914,848,802,-2.50,-9.12,3.22,-0.05,0.02,-0.03
2024-12-25 18:59:20,789,874,916,848,802,-2.44,-9.19,3.17,-0.00,0.01,0.01
2024-12-25 18:59:21,790,873,917,849,803,-2.68,-9.12,3.31,-0.08,0.00,-0.03
2024-12-25 18:59:21,790,874,917,848,800,-2.48,-9.19,3.33,0.03,0.05,0.00
2024-12-25 18:59:21,790,875,916,847,801,-2.39,-9.11,3.13,-0.07,0.03,-0.03
2024-12-25 18:59:21,788,875,915,848,803,-2.44,-9.17,3.33,-0.01,0.01,-0.01
2024-12-25 18:59:21,791,875,918,850,802,-2.52,-9.15,3.23,-0.04,0.01,0.01
2024-12-25 18:59:22,789,874,918,848,800,-2.46,-9.16,3.22,-0.06,0.04,-0.05
2024-12-25 18:59:22,789,874,916,848,800,-2.33,-9.16,3.13,-0.07,0.00,-0.05
2024-12-25 18:59:22,790,874,918,847,802,-2.47,-9.09,3.22,-0.06,-0.01,-0.01
2024-12-25 18:59:22,788,872,917,848,803,-2.44,-9.16,3.16,-0.02,0.02,-0.04
2024-12-25 18:59:22,791,876,917,849,802,-2.45,-9.22,3.32,-0.02,0.02,0.02
2024-12-25 18:59:22,791,873,914,848,803,-2.45,-9.19,3.03,-0.04,0.01,-0.00
2024-12-25 18:59:23,788,873,917,849,801,-2.41,-9.08,3.26,-0.04,0.02,0.01
2024-12-25 18:59:23,789,875,918,849,801,-2.41,-9.07,3.25,0.09,-0.05,0.05
2024-12-25 18:59:23,790,874,916,849,802,-2.77,-9.12,3.55,0.05,0.06,0.00
2024-12-25 18:59:23,787,873,915,848,800,-2.50,-9.02,3.74,-0.04,-0.00,-0.03
2024-12-25 18:59:23,787,873,917,847,803,-2.66,-9.02,3.75,-0.06,0.02,0.01
2024-12-25 18:59:24,787,874,919,847,802,-2.53,-9.05,3.45,-0.04,0.03,-0.03
2024-12-25 18:59:24,787,874,916,849,800,-2.67,-9.13,3.58,-0.08,0.09,-0.06
2024-12-25 18:59:24,787,874,917,847,800,-2.83,-9.39,3.61,-0.14,0.14,-0.13
2024-12-25 18:59:24,787,873,914,848,799,-2.22,-8.87,3.29,-0.07,0.03,0.04
2024-12-25 18:59:24,787,873,916,846,798,-2.52,-9.29,3.38,-0.02,0.00,0.01
2024-12-25 18:59:25,787,874,916,848,800,-2.57,-9.15,3.30,-0.01,0.01,0.00
2024-12-25 18:59:25,789,874,916,848,798,-2.57,-9.04,3.58,-0.01,0.02,-0.01
2024-12-25 18:59:25,785,874,915,846,799,-2.37,-9.15,3.51,0.04,-0.01,0.00
2024-12-25 18:59:25,790,873,915,846,798,-2.42,-9.06,3.41,-0.09,0.06,-0.07
2024-12-25 18:59:25,789,875,917,846,798,-2.76,-9.11,3.39,-0.05,-0.04,-0.05
2024-12-25 18:59:25,788,874,915,844,800,-2.36,-9.36,3.49,-0.03,0.04,0.06
2024-12-25 18:59:26,788,873,916,849,798,-2.03,-9.11,3.01,-0.09,0.06,-0.08
2024-12-25 18:59:26,788,873,915,846,798,-2.57,-9.23,3.32,-0.07,-0.07,0.00
2024-12-25 18:59:26,787,874,918,846,799,-2.77,-9.14,3.51,-0.00,0.07,-0.01
2024-12-25 18:59:26,791,874,913,846,798,-2.30,-9.07,3.58,-0.00,0.03,-0.03
2024-12-25 18:59:26,788,873,911,845,798,-2.38,-9.05,3.54,-0.03,-0.02,-0.05
2024-12-25 18:59:27,788,873,916,846,799,-2.75,-8.99,3.65,-0.05,-0.00,-0.03
2024-12-25 18:59:27,788,874,914,847,799,-2.28,-9.13,3.27,-0.14,-0.02,-0.07
2024-12-25 18:59:27,788,874,915,846,798,-2.30,-9.22,3.78,0.07,-0.01,0.06
2024-12-25 18:59:27,788,872,913,845,799,-2.41,-9.11,3.50,-0.10,0.07,-0.02
2024-12-25 18:59:27,789,871,915,846,799,-2.32,-9.13,3.68,-0.05,0.00,0.03
2024-12-25 18:59:28,788,874,916,846,798,-2.86,-9.04,3.71,-0.13,0.04,-0.06
2024-12-25 18:59:28,788,874,914,846,797,-1.89,-9.21,3.38,-0.01,0.05,-0.05
2024-12-25 18:59:28,787,872,916,846,799,-2.43,-9.15,3.38,-0.06,-0.03,0.01
2024-12-25 18:59:28,789,872,919,848,799,-2.37,-9.14,3.60,-0.03,0.05,-0.02
2024-12-25 18:59:28,788,871,915,847,799,-2.19,-9.15,3.38,-0.07,-0.01,-0.02
2024-12-25 18:59:28,784,874,916,845,799,-2.21,-9.17,3.60,0.10,0.05,0.00
2024-12-25 18:59:29,789,874,915,848,798,-2.43,-9.30,3.33,-0.11,0.01,-0.04
2024-12-25 18:59:29,786,872,914,848,797,-2.27,-9.28,3.51,-0.01,0.03,-0.01
2024-12-25 18:59:29,787,873,913,846,799,-2.33,-9.20,3.36,-0.06,0.05,0.02
2024-12-25 18:59:29,789,873,915,847,798,-2.21,-9.18,3.48,-0.00,0.04,-0.01
2024-12-25 18:59:29,788,870,916,842,798,-2.24,-9.20,3.52,-0.03,0.01,-0.01
2024-12-25 18:59:30,789,875,916,845,800,-2.25,-9.19,3.49,0.01,0.02,0.02
2024-12-25 18:59:30,789,873,916,848,798,-2.50,-9.09,3.45,0.01,-0.03,-0.00
2024-12-25 18:59:30,788,871,914,845,797,-2.12,-9.17,3.65,0.02,0.12,-0.03
2024-12-25 18:59:30,788,875,914,847,799,-2.00,-8.99,3.74,-0.06,0.05,-0.05
2024-12-25 18:59:30,788,873,916,848,800,-2.38,-9.20,3.58,-0.01,-0.02,-0.00
2024-12-25 18:59:31,786,875,916,844,797,-2.14,-9.08,3.39,-0.06,0.04,-0.04
2024-12-25 18:59:31,790,873,915,847,800,-2.15,-9.17,3.42,-0.09,-0.04,0.02
2024-12-25 18:59:31,785,871,913,844,799,-2.37,-9.22,3.78,-0.08,0.05,-0.02
2024-12-25 18:59:31,789,870,913,845,800,-2.23,-9.12,3.51,0.01,0.01,0.07
2024-12-25 18:59:31,789,872,917,845,799,-2.33,-9.08,3.53,0.00,0.00,-0.01
2024-12-25 18:59:31,788,870,913,846,799,-2.71,-9.34,3.55,0.00,-0.10,0.03
2024-12-25 18:59:32,786,872,913,847,799,-1.67,-9.38,3.21,-0.05,0.22,-0.10
2024-12-25 18:59:32,788,874,915,845,800,-2.24,-9.00,3.20,-0.16,-0.13,-0.00
2024-12-25 18:59:32,788,871,913,843,799,-3.07,-9.09,4.03,0.00,0.02,-0.00
2024-12-25 18:59:32,789,873,917,845,798,-1.85,-9.02,3.02,-0.03,0.00,-0.06
2024-12-25 18:59:32,787,872,914,848,798,-2.55,-9.36,3.56,-0.00,-0.10,0.13
2024-12-25 18:59:33,787,873,914,846,799,-2.32,-9.04,3.52,-0.06,-0.04,-0.03
2024-12-25 18:59:33,788,872,917,845,798,-2.66,-9.05,3.77,-0.05,0.01,0.00
2024-12-25 18:59:33,787,873,917,845,798,-2.21,-9.06,3.39,-0.02,0.08,-0.04
2024-12-25 18:59:33,788,869,913,845,799,-2.42,-9.15,3.73,-0.03,0.00,0.01
2024-12-25 18:59:33,788,871,913,845,800,-2.33,-9.16,3.56,-0.07,0.06,-0.02
2024-12-25 18:59:34,788,872,914,845,800,-2.48,-9.15,3.22,-0.07,0.04,-0.07
2024-12-25 18:59:34,788,871,914,843,798,-2.55,-9.17,3.40,-0.07,0.07,-0.01
2024-12-25 18:59:34,791,872,917,845,797,-2.34,-9.14,3.28,-0.11,0.07,-0.04
2024-12-25 18:59:34,787,872,914,845,798,-2.34,-9.14,3.23,-0.02,0.01,-0.05
2024-12-25 18:59:34,788,872,915,843,797,-2.40,-9.20,3.32,-0.07,0.03,-0.03
2024-12-25 18:59:34,789,871,916,847,799,-2.26,-9.17,3.30,-0.05,0.03,-0.02
2024-12-25 18:59:35,785,873,912,844,798,-2.29,-9.19,3.25,-0.03,0.02,-0.04
2024-12-25 18:59:35,788,874,915,845,799,-2.26,-9.17,3.33,-0.03,0.02,-0.03
2024-12-25 18:59:35,789,872,915,846,798,-2.37,-9.20,3.40,-0.04,0.02,-0.01
2024-12-25 18:59:35,788,874,916,846,797,-2.27,-9.27,3.38,-0.05,0.02,-0.00
2024-12-25 18:59:35,790,871,915,845,799,-2.39,-9.07,3.29,-0.08,-0.01,0.01
2024-12-25 18:59:36,786,871,910,844,797,-2.26,-9.39,3.46,-0.05,0.07,-0.02
2024-12-25 18:59:36,789,872,917,846,797,-2.53,-9.01,3.02,-0.07,-0.05,0.03
2024-12-25 18:59:36,791,872,913,846,799,-2.54,-9.16,3.56,0.00,0.05,-0.03
2024-12-25 18:59:36,788,871,915,846,799,-2.42,-9.19,3.37,-0.05,0.04,-0.02
2024-12-25 18:59:36,789,873,914,845,800,-2.50,-9.10,3.31,-0.03,0.02,0.01
2024-12-25 18:59:37,790,874,915,847,799,-2.41,-9.16,3.40,-0.04,-0.00,-0.01
2024-12-25 18:59:37,790,874,913,845,798,-2.48,-9.06,3.53,0.01,0.02,0.00
2024-12-25 18:59:37,788,871,914,845,797,-2.47,-9.10,3.40,-0.02,0.02,-0.03
2024-12-25 18:59:37,788,872,915,846,798,-2.31,-9.37,3.31,0.03,0.02,0.00
2024-12-25 18:59:37,788,871,913,845,797,-2.92,-8.84,3.86,-0.19,-0.00,-0.05
2024-12-25 18:59:37,789,872,915,845,798,-2.46,-9.04,3.09,-0.07,0.13,-0.08
2024-12-25 18:59:38,788,872,913,846,799,-2.33,-9.16,3.56,0.01,0.02,0.03
2024-12-25 18:59:38,789,873,915,845,800,-2.62,-9.17,3.34,0.01,0.14,-0.03
2024-12-25 18:59:38,789,872,915,845,800,-2.31,-9.18,3.35,0.03,0.14,-0.10
2024-12-25 18:59:38,792,876,916,844,799,-2.06,-9.31,3.32,0.02,0.03,-0.01
2024-12-25 18:59:38,789,870,914,845,800,-2.35,-9.13,3.43,-0.05,0.01,-0.01
2024-12-25 18:59:39,788,872,917,845,799,-2.62,-9.32,3.30,0.11,-0.03,0.07
2024-12-25 18:59:39,789,873,915,847,798,-2.28,-8.83,3.61,-0.11,0.01,-0.00
2024-12-25 18:59:39,788,872,915,846,799,-2.41,-9.07,3.75,0.00,-0.07,-0.03
2024-12-25 18:59:39,790,872,914,846,798,-2.03,-9.11,3.96,0.06,0.05,0.07
2024-12-25 18:59:39,790,873,915,846,799,-2.40,-8.98,3.55,-0.14,-0.05,-0.08
2024-12-25 18:59:40,787,871,915,844,799,-2.36,-9.21,3.87,-0.02,0.03,0.03
2024-12-25 18:59:40,790,872,913,845,799,-2.70,-8.97,3.76,-0.09,-0.05,0.03
2024-12-25 18:59:40,789,873,915,845,799,-2.03,-8.91,3.73,-0.03,0.05,0.05
2024-12-25 18:59:40,788,872,913,843,798,-2.79,-9.12,3.66,-0.00,-0.06,0.04
2024-12-25 18:59:40,790,871,914,846,799,-2.33,-8.89,3.94,-0.07,0.01,0.01
2024-12-25 18:59:40,791,870,915,846,799,-2.57,-8.92,3.91,-0.08,0.09,-0.02
2024-12-25 18:59:41,789,872,915,845,798,-2.69,-8.84,3.57,-0.20,-0.04,-0.19
2024-12-25 18:59:41,789,873,915,848,799,-2.40,-9.07,3.95,0.04,0.01,0.11
2024-12-25 18:59:41,790,872,912,848,798,-2.37,-8.94,3.87,0.02,0.02,0.02
2024-12-25 18:59:41,787,871,914,846,799,-2.27,-9.09,3.75,-0.09,0.06,-0.10
2024-12-25 18:59:41,789,871,915,846,799,-2.31,-9.00,3.79,-0.04,-0.00,-0.03
2024-12-25 18:59:42,789,871,912,845,797,-2.58,-8.99,3.89,-0.03,0.02,0.01
2024-12-25 18:59:42,790,870,912,846,799,-2.32,-9.00,3.88,-0.03,0.03,-0.02
2024-12-25 18:59:42,790,871,915,846,799,-2.44,-9.06,3.85,-0.04,0.02,0.01
2024-12-25 18:59:42,788,871,916,846,798,-2.38,-9.05,3.81,-0.04,0.02,-0.00
2024-12-25 18:59:42,787,870,916,844,798,-2.37,-9.03,3.78,-0.07,0.07,-0.03
2024-12-25 18:59:42,789,873,915,847,800,-2.33,-9.03,3.70,-0.06,0.03,-0.01
2024-12-25 18:59:43,789,870,913,845,799,-2.46,-9.04,3.74,-0.04,0.03,-0.01
2024-12-25 18:59:43,798,871,915,846,798,-2.34,-9.05,3.73,0.01,0.02,-0.00
2024-12-25 18:59:43,798,872,915,847,799,-2.41,-9.05,3.65,-0.06,0.02,-0.01
2024-12-25 18:59:43,801,870,914,843,797,-2.36,-9.06,3.87,-0.06,0.04,-0.02
2024-12-25 18:59:43,800,873,914,843,800,-2.40,-9.07,3.71,-0.02,0.03,0.00
2024-12-25 18:59:44,799,875,914,845,801,-2.40,-9.10,3.68,-0.06,0.04,-0.02
2024-12-25 18:59:44,796,870,912,842,798,-2.31,-9.03,3.70,-0.05,0.03,-0.02
2024-12-25 18:59:44,796,873,913,844,799,-2.36,-9.11,3.72,-0.04,0.04,-0.01
2024-12-25 18:59:44,795,872,913,845,798,-2.26,-9.15,3.51,-0.08,0.05,-0.03
2024-12-25 18:59:44,794,871,916,844,798,-2.34,-9.13,3.58,-0.12,0.03,-0.02
2024-12-25 18:59:45,794,873,915,846,800,-2.31,-9.09,3.55,-0.06,0.07,-0.03
2024-12-25 18:59:45,792,872,913,845,797,-2.33,-9.23,3.30,-0.04,0.05,-0.00
2024-12-25 18:59:45,793,873,915,844,799,-2.38,-9.17,3.20,-0.12,0.10,-0.06
2024-12-25 18:59:45,792,870,913,843,797,-2.21,-9.24,3.21,-0.09,0.08,-0.05
2024-12-25 18:59:45,791,866,912,844,794,-2.32,-9.19,3.20,-0.07,0.02,-0.04
2024-12-25 18:59:45,793,863,910,837,787,-2.23,-9.25,3.06,0.05,0.16,-0.05
2024-12-25 18:59:46,790,852,900,829,780,-2.11,-9.34,3.27,0.04,0.37,-0.11
2024-12-25 18:59:46,790,853,901,829,781,-2.13,-9.05,3.25,-0.01,0.12,-0.00
2024-12-25 18:59:46,792,858,905,830,781,-2.27,-9.40,3.09,-0.06,0.04,-0.02
2024-12-25 18:59:46,791,856,904,828,780,-2.26,-9.24,3.05,-0.08,0.01,-0.00
2024-12-25 18:59:46,791,856,904,829,781,-2.29,-9.28,3.06,-0.00,0.03,0.02
2024-12-25 18:59:47,793,858,905,829,781,-2.30,-9.26,3.21,0.00,-0.04,0.04
2024-12-25 18:59:47,790,857,904,829,782,-2.41,-9.15,3.17,-0.04,-0.01,0.00
2024-12-25 18:59:47,792,858,905,828,780,-2.37,-9.22,3.24,-0.04,0.01,-0.00
2024-12-25 18:59:47,793,858,905,828,781,-2.39,-9.21,3.27,-0.08,-0.02,-0.01
2024-12-25 18:59:47,790,858,906,829,780,-2.39,-9.20,3.23,-0.05,0.03,-0.01
2024-12-25 18:59:48,792,861,908,828,782,-2.42,-9.18,3.29,-0.05,0.02,-0.00
2024-12-25 18:59:48,792,859,905,828,782,-2.26,-9.20,3.15,-0.03,-0.00,0.02
2024-12-25 18:59:48,790,858,903,829,781,-2.64,-9.13,3.34,-0.05,-0.03,0.01
2024-12-25 18:59:48,790,858,907,830,781,-2.40,-9.00,3.28,-0.03,0.03,-0.01
2024-12-25 18:59:48,791,858,905,828,781,-2.52,-9.11,3.46,-0.01,-0.00,0.03
2024-12-25 18:59:48,792,858,908,829,781,-2.51,-9.13,3.30,-0.03,0.02,-0.00
2024-12-25 18:59:49,792,858,904,829,783,-2.56,-9.12,3.39,-0.03,-0.04,-0.04
2024-12-25 18:59:49,791,859,905,829,782,-2.50,-9.14,3.37,-0.03,-0.00,-0.00
2024-12-25 18:59:49,789,856,903,829,782,-2.51,-9.19,3.41,-0.03,0.03,0.00
2024-12-25 18:59:49,792,858,906,830,782,-2.49,-9.13,3.41,-0.05,0.00,-0.01
2024-12-25 18:59:49,793,857,906,829,783,-2.55,-9.08,3.31,-0.00,0.02,-0.05
2024-12-25 18:59:50,792,860,906,829,782,-2.65,-9.05,3.59,0.00,-0.02,0.06
2024-12-25 18:59:50,792,860,904,829,783,-2.53,-9.09,3.53,-0.06,-0.01,-0.00
2024-12-25 18:59:50,791,859,908,828,782,-2.53,-9.01,3.53,-0.03,-0.02,0.01
2024-12-25 18:59:50,793,860,904,828,782,-2.66,-9.09,3.60,-0.06,0.03,-0.00
2024-12-25 18:59:50,793,858,904,831,782,-2.51,-9.00,3.59,-0.05,-0.09,-0.01
2024-12-25 18:59:51,790,859,905,828,781,-2.69,-9.04,3.44,-0.05,0.06,-0.01
2024-12-25 18:59:51,789,860,906,830,782,-2.54,-9.13,3.47,-0.07,0.09,0.01
2024-12-25 18:59:51,792,859,904,831,782,-2.58,-8.88,3.42,-0.09,0.02,-0.02
2024-12-25 18:59:51,792,859,903,829,781,-2.51,-9.14,3.47,0.02,-0.01,-0.03
2024-12-25 18:59:51,791,858,905,830,783,-2.54,-9.03,3.51,-0.03,-0.01,-0.01
2024-12-25 18:59:52,789,860,904,830,782,-2.59,-9.08,3.37,-0.00,0.04,-0.01
2024-12-25 18:59:52,790,861,904,830,783,-2.47,-9.06,3.57,-0.09,0.01,-0.01
2024-12-25 18:59:52,793,862,910,832,784,-2.65,-9.04,3.37,-0.01,0.04,0.00
2024-12-25 18:59:52,791,861,908,832,787,-2.59,-9.10,3.46,-0.03,0.05,-0.02
2024-12-25 18:59:52,792,863,909,834,786,-2.65,-9.07,3.43,-0.04,0.04,-0.02
2024-12-25 18:59:52,793,864,910,834,786,-2.54,-9.09,3.43,-0.00,0.00,-0.01
2024-12-25 18:59:53,791,862,906,834,786,-2.58,-9.15,3.52,-0.07,0.04,-0.03
2024-12-25 18:59:53,791,863,909,833,786,-2.57,-9.09,3.38,-0.02,0.03,-0.01
2024-12-25 18:59:53,789,861,908,832,787,-2.57,-9.10,3.37,-0.04,0.03,-0.02
2024-12-25 18:59:53,792,863,907,831,784,-2.58,-9.13,3.41,-0.02,0.03,-0.02
2024-12-25 18:59:53,790,864,909,831,786,-2.54,-9.10,3.51,-0.04,0.04,-0.01
2024-12-25 18:59:54,792,861,909,834,787,-2.55,-9.13,3.40,-0.03,0.02,-0.02
2024-12-25 18:59:54,792,860,906,831,786,-2.56,-9.10,3.43,-0.03,0.02,-0.03
2024-12-25 18:59:54,789,861,905,832,785,-2.61,-9.10,3.51,-0.02,0.02,-0.01
2024-12-25 18:59:54,789,862,907,833,784,-2.45,-9.00,3.48,-0.03,0.00,-0.00
2024-12-25 18:59:54,793,862,908,833,786,-2.63,-9.11,3.54,-0.06,0.01,-0.02
2024-12-25 18:59:55,791,864,907,832,785,-2.55,-9.06,3.51,-0.03,0.02,-0.00
2024-12-25 18:59:55,790,862,906,833,785,-2.60,-9.09,3.49,-0.04,0.01,-0.00
2024-12-25 18:59:55,792,861,907,833,786,-2.48,-9.02,3.51,-0.05,0.04,-0.02
2024-12-25 18:59:55,789,861,907,831,785,-2.54,-9.10,3.49,-0.03,0.03,-0.03
2024-12-25 18:59:55,793,861,910,835,786,-2.53,-9.05,3.54,-0.04,0.01,-0.01
2024-12-25 18:59:55,790,863,906,833,785,-2.60,-9.05,3.58,-0.04,0.02,-0.02
2024-12-25 18:59:56,791,862,909,833,785,-2.59,-9.12,3.62,-0.08,0.04,-0.04
2024-12-25 18:59:56,792,862,907,835,786,-2.63,-8.99,3.51,-0.04,0.01,-0.01
2024-12-25 18:59:56,792,863,905,833,784,-2.65,-9.05,3.61,-0.03,0.01,-0.01
2024-12-25 18:59:56,792,862,907,832,787,-2.65,-9.07,3.55,-0.05,0.02,-0.01
2024-12-25 18:59:56,791,860,906,833,786,-2.62,-9.05,3.58,-0.04,0.02,-0.02
2024-12-25 18:59:57,793,862,908,834,785,-2.64,-9.01,3.59,-0.06,0.05,-0.01
2024-12-25 18:59:57,793,862,910,832,786,-2.60,-9.03,3.57,-0.05,0.01,-0.01
2024-12-25 18:59:57,790,860,909,830,785,-2.62,-9.01,3.60,-0.03,0.02,-0.02
2024-12-25 18:59:57,791,862,906,832,786,-2.60,-9.01,3.50,-0.05,0.04,-0.02
2024-12-25 18:59:57,792,862,906,833,786,-2.56,-9.06,3.55,-0.02,0.00,-0.01
2024-12-25 18:59:58,790,862,905,834,785,-2.69,-9.09,3.52,-0.06,0.06,-0.02
2024-12-25 18:59:58,793,860,909,833,787,-2.56,-8.95,3.73,-0.04,0.00,0.02
2024-12-25 18:59:58,790,861,906,830,785,-2.63,-8.96,3.57,-0.03,0.03,0.01
2024-12-25 18:59:58,792,860,907,831,784,-2.58,-8.99,3.54,-0.01,0.01,-0.03
2024-12-25 18:59:58,792,862,908,833,785,-2.64,-9.02,3.55,-0.04,0.02,-0.01
2024-12-25 18:59:58,791,861,907,833,784,-2.60,-8.95,3.51,-0.07,0.02,-0.05
2024-12-25 18:59:59,791,862,906,831,786,-2.71,-9.05,3.48,-0.01,0.00,-0.01
2024-12-25 18:59:59,791,861,907,834,787,-2.57,-9.02,3.45,-0.02,0.02,0.01
2024-12-25 18:59:59,792,860,906,833,785,-2.72,-9.10,3.50,-0.02,0.03,-0.01
2024-12-25 18:59:59,792,862,906,834,785,-2.65,-9.00,3.48,-0.05,0.00,-0.00
2024-12-25 18:59:59,791,863,907,831,785,-2.75,-8.77,3.65,-0.05,0.02,-0.02
2024-12-25 19:00:00,793,863,905,832,785,-2.69,-9.15,3.71,-0.00,0.08,-0.04
2024-12-25 19:00:00,792,862,908,834,787,-2.80,-8.96,3.48,-0.06,0.00,-0.00
2024-12-25 19:00:00,791,859,906,834,784,-2.65,-9.01,3.63,-0.02,-0.01,0.01
2024-12-25 19:00:00,792,861,908,831,784,-2.77,-8.88,3.63,-0.04,-0.01,0.02
2024-12-25 19:00:00,793,864,906,832,784,-2.74,-8.92,3.80,-0.02,0.02,-0.02
2024-12-25 19:00:01,791,860,907,831,786,-2.32,-9.06,3.72,-0.06,-0.06,-0.05
2024-12-25 19:00:01,791,863,909,833,787,-2.95,-8.85,3.97,-0.09,0.01,-0.00
2024-12-25 19:00:01,790,860,907,830,785,-2.54,-8.96,3.56,0.01,0.05,-0.05
2024-12-25 19:00:01,790,863,906,831,785,-2.65,-8.94,3.92,-0.05,-0.01,-0.01
2024-12-25 19:00:01,793,863,908,832,787,-2.56,-8.93,3.78,-0.02,0.06,-0.01
2024-12-25 19:00:01,792,862,905,832,786,-2.71,-8.92,3.87,-0.04,0.00,-0.02
2024-12-25 19:00:02,791,862,908,833,785,-2.47,-8.88,3.85,-0.01,0.04,-0.04
2024-12-25 19:00:02,791,863,909,832,785,-2.54,-8.94,3.87,-0.06,0.04,-0.03
2024-12-25 19:00:02,791,862,909,834,785,-2.69,-8.99,3.76,-0.03,-0.01,-0.00
2024-12-25 19:00:02,791,864,907,834,786,-2.65,-8.99,3.68,-0.03,0.01,-0.03
2024-12-25 19:00:02,792,862,906,832,786,-2.50,-8.99,3.76,-0.07,0.02,-0.01
2024-12-25 19:00:03,790,862,906,833,783,-2.57,-8.83,4.03,-0.02,0.01,0.02
2024-12-25 19:00:03,791,862,909,835,786,-2.62,-8.81,4.14,-0.02,-0.01,0.01
2024-12-25 19:00:03,791,862,907,830,786,-2.59,-8.81,3.87,-0.07,0.01,-0.02
2024-12-25 19:00:03,790,861,908,832,787,-2.64,-8.88,3.97,-0.03,0.02,-0.00
2024-12-25 19:00:03,792,862,905,831,787,-2.61,-9.02,4.14,-0.09,0.03,-0.02
2024-12-25 19:00:04,789,861,907,833,785,-2.50,-8.84,3.87,-0.04,0.03,-0.03
2024-12-25 19:00:04,794,865,910,834,786,-2.60,-8.93,3.98,-0.05,0.04,-0.05
2024-12-25 19:00:04,790,862,906,832,785,-2.55,-8.96,4.07,-0.02,0.01,0.00
2024-12-25 19:00:04,792,864,905,831,785,-2.47,-8.80,3.86,-0.08,0.04,-0.00
2024-12-25 19:00:04,792,863,909,833,786,-2.67,-8.94,4.10,-0.00,0.01,-0.01
2024-12-25 19:00:04,789,861,906,832,786,-2.18,-8.87,3.91,-0.12,0.11,-0.13
2024-12-25 19:00:05,789,861,907,833,787,-2.43,-8.92,4.03,0.05,-0.07,0.02
2024-12-25 19:00:05,791,863,907,833,788,-2.61,-8.96,4.02,-0.11,-0.00,0.04
2024-12-25 19:00:05,790,861,906,832,785,-2.37,-8.73,3.98,0.01,-0.04,0.01
2024-12-25 19:00:05,791,858,906,833,785,-2.55,-8.76,4.39,-0.13,-0.02,0.03
2024-12-25 19:00:05,789,861,907,834,786,-2.52,-8.80,3.92,-0.06,0.02,-0.02
2024-12-25 19:00:06,788,862,907,831,786,-2.60,-8.96,4.31,-0.00,0.05,0.02
2024-12-25 19:00:06,792,860,907,831,787,-2.66,-8.89,3.66,-0.07,0.02,-0.03
2024-12-25 19:00:06,791,863,908,832,787,-2.58,-9.01,3.84,-0.06,-0.04,-0.04
2024-12-25 19:00:06,790,860,904,833,787,-2.37,-8.85,4.00,-0.07,0.03,0.02
2024-12-25 19:00:06,790,861,907,832,785,-2.77,-8.81,3.92,-0.04,-0.03,0.02
2024-12-25 19:00:07,788,861,907,832,787,-2.43,-9.05,4.08,0.08,0.05,0.03
2024-12-25 19:00:07,791,861,907,831,786,-2.93,-8.79,3.99,-0.07,0.01,-0.02
2024-12-25 19:00:07,789,860,908,833,786,-2.69,-8.98,3.99,-0.02,0.07,-0.02
2024-12-25 19:00:07,791,863,908,833,788,-2.63,-8.81,3.96,-0.03,-0.02,-0.02
2024-12-25 19:00:07,790,861,903,832,786,-2.71,-8.96,4.13,-0.02,0.06,-0.00
2024-12-25 19:00:07,793,862,907,831,786,-2.62,-8.81,4.10,-0.02,0.03,-0.03
2024-12-25 19:00:08,787,860,909,834,786,-2.67,-8.97,4.15,-0.00,0.05,-0.03
2024-12-25 19:00:08,789,860,908,832,785,-2.67,-8.87,3.81,-0.00,-0.01,-0.00
2024-12-25 19:00:08,790,860,907,832,786,-2.67,-8.94,3.88,-0.06,-0.01,-0.01
2024-12-25 19:00:08,790,861,907,829,787,-2.54,-8.84,4.34,-0.13,0.01,0.10
2024-12-25 19:00:08,792,861,908,831,786,-3.22,-8.53,4.10,0.02,-0.12,0.10
2024-12-25 19:00:09,791,862,904,834,788,-2.86,-8.73,4.63,0.04,0.13,-0.07
2024-12-25 19:00:09,789,858,904,832,786,-2.43,-8.73,4.09,0.02,-0.01,-0.01
2024-12-25 19:00:09,791,861,906,831,786,-3.16,-8.81,4.30,-0.07,0.02,-0.01
2024-12-25 19:00:09,790,863,906,830,786,-2.34,-8.56,4.06,-0.07,-0.05,-0.02
2024-12-25 19:00:09,789,860,905,829,787,-2.68,-8.82,4.37,-0.12,0.05,-0.02
2024-12-25 19:00:10,791,864,910,832,788,-2.89,-8.68,4.47,-0.21,-0.26,-0.03
2024-12-25 19:00:10,790,861,907,830,784,-3.06,-8.78,4.21,0.12,-0.02,0.06
2024-12-25 19:00:10,790,861,906,834,787,-2.64,-8.83,4.17,0.04,0.06,0.03
2024-12-25 19:00:10,790,863,908,833,786,-2.70,-8.68,4.21,0.00,-0.02,0.02
2024-12-25 19:00:10,790,861,908,832,785,-2.91,-8.71,4.41,-0.05,0.07,-0.03
2024-12-25 19:00:10,789,861,904,833,785,-2.97,-8.75,4.69,-0.00,0.03,0.02
2024-12-25 19:00:11,791,861,907,832,786,-2.84,-8.41,4.42,-0.10,0.13,-0.14
2024-12-25 19:00:11,792,862,906,829,785,-2.33,-8.87,4.35,0.08,0.04,-0.05
2024-12-25 19:00:11,789,861,907,832,785,-2.92,-8.70,4.19,-0.15,0.05,-0.01
2024-12-25 19:00:11,789,860,905,833,785,-2.64,-8.93,3.96,0.10,0.04,-0.03
2024-12-25 19:00:11,790,861,908,834,786,-2.24,-8.61,3.99,-0.08,-0.06,-0.07
2024-12-25 19:00:12,790,860,906,830,786,-3.06,-9.01,5.20,0.00,0.04,0.05
2024-12-25 19:00:12,789,861,906,831,786,-2.60,-8.57,3.95,-0.04,0.09,-0.04
2024-12-25 19:00:12,792,861,906,835,787,-2.75,-8.69,4.41,-0.02,-0.12,-0.01
2024-12-25 19:00:12,789,862,908,834,787,-2.87,-8.52,5.15,-0.03,0.07,0.00
2024-12-25 19:00:12,789,862,908,834,785,-2.86,-8.60,4.50,0.05,0.02,0.01
2024-12-25 19:00:12,791,861,906,832,787,-2.64,-8.55,4.44,-0.07,0.04,-0.09
2024-12-25 19:00:13,788,861,905,832,785,-3.01,-8.59,4.79,0.01,-0.08,-0.02
2024-12-25 19:00:13,789,860,908,832,787,-2.60,-8.87,4.34,0.09,0.08,-0.03
2024-12-25 19:00:13,790,861,908,831,787,-2.88,-8.67,4.30,-0.09,0.01,-0.03
2024-12-25 19:00:13,789,861,907,831,787,-3.27,-8.56,4.79,-0.23,-0.00,0.05
2024-12-25 19:00:13,789,862,906,833,786,-2.77,-8.19,4.61,0.01,0.06,0.10
2024-12-25 19:00:14,789,861,907,831,787,-2.93,-8.56,4.88,-0.09,0.07,-0.09
2024-12-25 19:00:14,789,859,906,832,787,-3.07,-8.51,4.54,-0.02,0.00,-0.00
2024-12-25 19:00:14,788,861,906,831,787,-3.00,-8.54,4.64,-0.09,0.07,-0.04
2024-12-25 19:00:14,790,861,909,831,786,-2.63,-8.52,4.41,-0.04,0.08,-0.01
2024-12-25 19:00:14,788,859,905,834,788,-2.84,-8.59,4.57,-0.08,-0.05,0.00
2024-12-25 19:00:15,790,862,908,830,786,-2.99,-8.69,4.24,-0.08,0.06,-0.07
2024-12-25 19:00:15,792,861,908,831,787,-2.92,-8.51,4.78,-0.01,-0.01,0.00
2024-12-25 19:00:15,790,861,906,832,787,-2.87,-8.68,4.67,-0.00,0.05,0.01
2024-12-25 19:00:15,789,859,908,832,787,-3.16,-8.32,4.55,-0.20,-0.01,-0.03
2024-12-25 19:00:15,789,860,911,833,787,-2.97,-8.49,4.44,0.06,-0.02,0.04
2024-12-25 19:00:15,789,860,906,833,785,-3.06,-8.55,5.01,-0.11,-0.00,-0.00
2024-12-25 19:00:16,788,860,910,831,787,-2.78,-8.54,4.44,0.02,0.02,0.00
2024-12-25 19:00:16,790,860,907,832,786,-2.86,-8.44,4.54,-0.07,0.05,-0.05
2024-12-25 19:00:16,789,859,905,833,787,-3.09,-8.63,4.74,-0.01,0.00,-0.02
2024-12-25 19:00:16,789,861,907,832,786,-2.90,-8.49,4.50,-0.01,0.01,-0.00
2024-12-25 19:00:16,790,861,909,832,788,-2.99,-8.56,4.51,-0.02,0.03,-0.03
2024-12-25 19:00:17,789,861,906,832,787,-3.12,-8.45,4.52,-0.11,-0.01,0.02
2024-12-25 19:00:17,789,862,909,831,786,-3.08,-8.42,4.66,-0.05,0.01,-0.04
2024-12-25 19:00:17,791,860,907,831,788,-2.98,-8.45,4.66,-0.01,0.04,-0.02
2024-12-25 19:00:17,789,859,904,833,785,-3.16,-8.75,4.66,-0.06,0.05,-0.01
2024-12-25 19:00:17,789,860,906,832,787,-2.85,-8.51,4.43,-0.02,0.00,0.02
2024-12-25 19:00:18,792,861,910,832,787,-3.06,-8.39,4.69,-0.00,0.01,0.01
2024-12-25 19:00:18,786,862,907,831,787,-2.96,-8.50,4.70,-0.01,0.02,0.00
2024-12-25 19:00:18,789,861,907,832,785,-2.89,-8.41,4.67,-0.04,0.00,0.00
2024-12-25 19:00:18,789,861,907,831,785,-2.94,-8.56,4.70,-0.03,0.03,-0.03
2024-12-25 19:00:18,788,861,907,831,787,-3.04,-8.45,4.57,-0.06,0.06,-0.05
2024-12-25 19:00:18,789,859,906,833,787,-2.41,-8.77,4.21,-0.03,0.19,-0.14
2024-12-25 19:00:19,790,861,907,832,785,-2.81,-8.46,5.14,0.11,-0.40,-0.00
2024-12-25 19:00:19,789,860,904,832,786,-3.56,-8.45,5.01,-0.19,0.19,0.13
2024-12-25 19:00:19,787,860,906,830,785,-2.73,-8.34,4.30,0.02,0.06,-0.06
2024-12-25 19:00:19,789,858,907,834,787,-3.10,-8.52,4.96,-0.12,0.01,0.00
2024-12-25 19:00:19,792,864,907,833,788,-2.76,-8.67,4.22,0.07,0.13,-0.06
2024-12-25 19:00:20,790,860,906,832,786,-2.59,-8.69,4.23,-0.12,-0.03,-0.01
2024-12-25 19:00:20,789,859,907,833,786,-2.94,-8.45,4.73,-0.02,-0.00,0.00
2024-12-25 19:00:20,791,861,905,833,788,-2.68,-8.52,4.61,-0.01,0.02,-0.02
2024-12-25 19:00:20,787,859,908,833,785,-2.78,-8.65,4.83,-0.01,-0.03,0.04
2024-12-25 19:00:20,786,862,906,831,788,-2.98,-8.41,4.47,-0.04,-0.01,0.01
2024-12-25 19:00:21,788,863,907,832,786,-2.92,-8.45,4.86,0.00,0.01,0.01
2024-12-25 19:00:21,789,862,905,831,786,-2.84,-8.48,4.55,0.02,0.03,0.01
2024-12-25 19:00:21,788,860,906,832,787,-3.03,-8.49,4.59,-0.09,0.01,-0.04
2024-12-25 19:00:21,790,858,906,832,788,-3.16,-8.71,4.73,0.06,0.12,0.02
2024-12-25 19:00:21,791,861,907,833,786,-2.95,-8.24,4.33,-0.05,-0.01,-0.12
2024-12-25 19:00:21,790,861,904,830,786,-3.05,-8.52,5.03,-0.02,0.03,0.03
2024-12-25 19:00:22,792,862,905,830,787,-2.88,-8.49,4.42,0.06,-0.01,-0.07
2024-12-25 19:00:22,789,858,908,833,787,-2.72,-8.77,4.55,-0.05,-0.03,0.01
2024-12-25 19:00:22,789,859,905,829,785,-2.70,-8.46,4.83,-0.10,0.03,-0.02
2024-12-25 19:00:22,789,862,906,832,787,-2.90,-8.57,4.51,-0.14,0.09,-0.07
2024-12-25 19:00:22,788,862,906,833,788,-2.82,-8.57,4.34,-0.04,0.09,-0.07
2024-12-25 19:00:23,790,860,908,832,786,-2.74,-8.68,4.53,-0.05,0.01,-0.00
2024-12-25 19:00:23,791,859,905,833,786,-2.78,-8.59,4.41,-0.03,0.00,-0.01
2024-12-25 19:00:23,790,860,905,832,787,-2.86,-8.68,4.42,-0.01,0.04,-0.01
2024-12-25 19:00:23,790,861,906,831,787,-2.85,-8.65,4.49,-0.03,0.01,-0.00
2024-12-25 19:00:23,789,860,908,831,787,-3.03,-8.63,4.83,0.02,0.07,-0.05
2024-12-25 19:00:24,789,861,905,833,788,-2.63,-8.53,4.29,-0.06,-0.03,0.04
2024-12-25 19:00:24,789,860,905,830,788,-3.02,-8.71,4.30,-0.06,0.03,-0.01
2024-12-25 19:00:24,790,860,907,832,787,-2.78,-8.66,4.49,-0.08,-0.01,-0.00
2024-12-25 19:00:24,789,858,906,831,787,-2.94,-8.59,4.67,-0.04,0.03,0.00
2024-12-25 19:00:24,789,862,907,831,787,-2.76,-8.54,4.71,-0.08,0.05,0.03
2024-12-25 19:00:24,790,860,905,833,787,-2.91,-8.43,4.74,0.04,-0.05,0.02
2024-12-25 19:00:25,789,862,908,830,788,-2.67,-8.68,4.44,-0.03,0.12,-0.08
2024-12-25 19:00:25,788,860,905,830,788,-2.71,-8.51,4.76,-0.04,0.02,-0.00
2024-12-25 19:00:25,790,861,906,832,787,-2.85,-8.42,4.47,-0.11,0.00,-0.02
2024-12-25 19:00:25,789,861,908,833,788,-2.75,-8.63,4.94,-0.02,0.04,-0.03
2024-12-25 19:00:25,790,859,905,833,786,-2.77,-8.51,4.72,-0.01,-0.01,0.02
2024-12-25 19:00:26,790,861,908,833,788,-2.74,-8.54,4.53,-0.02,0.04,-0.03
2024-12-25 19:00:26,790,862,907,831,787,-2.81,-8.53,4.97,-0.07,-0.01,0.01
2024-12-25 19:00:26,789,861,906,832,786,-2.87,-8.56,4.43,0.05,0.01,0.03
2024-12-25 19:00:26,786,859,907,833,787,-2.98,-8.57,4.70,-0.07,0.02,-0.04
2024-12-25 19:00:26,791,862,909,833,788,-2.68,-8.48,4.66,-0.10,0.06,-0.02
2024-12-25 19:00:27,787,859,907,832,787,-2.87,-8.56,4.61,-0.05,0.03,-0.03
2024-12-25 19:00:27,789,861,907,833,786,-2.79,-8.61,4.54,-0.05,0.05,-0.03
2024-12-25 19:00:27,789,861,909,831,786,-2.74,-8.66,4.53,-0.06,0.04,-0.02
2024-12-25 19:00:27,789,858,906,832,787,-2.81,-8.61,4.51,-0.04,0.03,-0.02
2024-12-25 19:00:27,789,861,907,833,787,-2.73,-8.62,4.48,-0.03,0.01,-0.01
2024-12-25 19:00:27,788,860,905,830,785,-2.84,-8.61,4.58,-0.01,-0.03,0.05
2024-12-25 19:00:28,789,860,905,830,787,-2.91,-8.45,4.53,-0.10,0.03,-0.07
2024-12-25 19:00:28,792,861,907,832,788,-2.64,-8.70,4.63,0.04,0.02,-0.00
2024-12-25 19:00:28,790,858,904,832,786,-2.94,-8.56,4.48,-0.09,-0.03,0.01
2024-12-25 19:00:28,790,859,906,832,787,-2.82,-8.57,4.60,-0.06,0.03,-0.04
2024-12-25 19:00:28,791,861,909,833,788,-2.77,-8.54,4.83,-0.03,0.03,-0.02
2024-12-25 19:00:29,791,860,906,831,789,-2.79,-8.53,4.64,-0.04,0.03,0.01
2024-12-25 19:00:29,789,859,910,833,788,-2.80,-8.59,4.68,-0.04,0.03,-0.04
2024-12-25 19:00:29,791,861,907,831,787,-2.79,-8.56,4.72,-0.04,0.03,0.00
2024-12-25 19:00:29,790,858,909,832,787,-2.81,-8.55,4.61,-0.05,0.03,-0.01
2024-12-25 19:00:29,791,860,909,833,786,-2.95,-8.59,4.85,-0.01,0.02,-0.03
2024-12-25 19:00:30,790,860,907,832,787,-2.71,-8.44,4.60,-0.04,0.01,-0.00
2024-12-25 19:00:30,788,860,905,832,787,-2.77,-8.67,4.53,-0.10,0.06,-0.04
2024-12-25 19:00:30,791,861,906,831,786,-2.99,-8.52,4.57,-0.10,-0.05,-0.02
2024-12-25 19:00:30,790,861,906,832,787,-2.83,-8.48,4.64,-0.10,0.02,-0.04
2024-12-25 19:00:30,786,860,906,831,787,-2.60,-8.61,4.47,-0.08,0.00,-0.02
2024-12-25 19:00:30,789,860,907,834,786,-2.32,-8.69,4.48,0.01,-0.04,0.01
2024-12-25 19:00:31,792,862,906,833,787,-2.95,-8.55,4.60,0.03,-0.02,0.01
2024-12-25 19:00:31,790,860,906,831,787,-2.72,-8.52,4.56,-0.03,0.10,-0.07
2024-12-25 19:00:31,788,860,905,830,787,-2.67,-8.60,4.64,0.02,0.05,0.01
2024-12-25 19:00:31,789,861,907,830,788,-2.85,-8.57,4.56,-0.05,0.06,-0.04
2024-12-25 19:00:31,792,861,907,830,787,-2.65,-8.57,4.61,-0.05,0.01,-0.02
2024-12-25 19:00:32,790,860,906,831,787,-2.67,-8.63,4.63,0.01,-0.01,0.02
2024-12-25 19:00:32,790,861,906,834,788,-2.81,-8.48,4.72,-0.04,0.02,-0.01
2024-12-25 19:00:32,792,861,909,831,788,-2.63,-8.58,4.71,-0.03,0.05,-0.01
2024-12-25 19:00:32,790,859,904,831,787,-2.86,-8.57,4.79,-0.01,0.03,0.00
2024-12-25 19:00:32,790,860,906,831,787,-2.77,-8.57,4.77,-0.03,0.02,0.05
2024-12-25 19:00:33,791,861,906,833,788,-2.71,-8.60,4.62,-0.00,0.06,0.02
2024-12-25 19:00:33,789,860,906,832,786,-2.75,-8.55,4.85,-0.01,0.04,0.01
2024-12-25 19:00:33,786,859,903,830,785,-2.69,-8.49,4.67,-0.04,0.03,-0.00
2024-12-25 19:00:33,788,861,907,832,787,-2.71,-8.57,4.69,-0.03,0.02,-0.01
2024-12-25 19:00:33,790,860,905,832,786,-2.71,-8.56,4.66,-0.04,0.03,-0.02
2024-12-25 19:00:33,789,861,902,832,787,-2.73,-8.53,4.77,-0.01,0.03,-0.01
2024-12-25 19:00:34,791,861,906,832,789,-2.69,-8.61,4.53,-0.08,0.03,-0.05
2024-12-25 19:00:34,790,862,905,830,786,-2.68,-8.64,4.59,-0.08,0.05,-0.03
2024-12-25 19:00:34,790,860,905,834,788,-2.80,-9.32,4.14,-0.15,0.91,0.07
2024-12-25 19:00:34,790,860,906,833,787,-3.25,-8.04,4.13,-0.38,0.07,-0.06
2024-12-25 19:00:34,789,861,905,833,787,-3.42,-8.83,2.97,-0.02,0.09,0.02
2024-12-25 19:00:35,789,861,904,831,787,-3.45,-8.77,3.33,-0.03,0.01,-0.02
2024-12-25 19:00:35,790,861,907,832,789,-3.28,-8.84,3.30,-0.02,0.03,0.01
2024-12-25 19:00:35,789,858,908,835,787,-3.67,-8.59,3.53,-0.02,0.03,-0.07
2024-12-25 19:00:35,791,860,905,830,787,-3.51,-8.85,3.44,-0.01,0.01,-0.01
2024-12-25 19:00:35,788,861,906,831,788,-3.42,-8.72,3.37,-0.06,-0.05,-0.03
2024-12-25 19:00:36,793,859,908,831,788,-3.30,-8.77,3.55,0.08,-0.30,-0.02
2024-12-25 19:00:36,787,859,907,831,788,-3.22,-8.73,4.06,-0.02,-0.05,0.01
2024-12-25 19:00:36,791,860,905,833,787,-3.21,-8.62,3.98,-0.03,0.01,-0.02
2024-12-25 19:00:36,790,857,907,830,787,-3.20,-8.71,4.02,-0.06,0.02,-0.02
2024-12-25 19:00:36,790,861,908,832,787,-3.21,-8.73,3.88,-0.12,0.10,-0.11
2024-12-25 19:00:36,791,862,909,832,788,-3.18,-8.67,3.86,0.01,0.13,0.05
2024-12-25 19:00:37,791,860,905,833,787,-2.94,-8.72,3.90,-0.05,0.08,-0.07
2024-12-25 19:00:37,787,859,908,832,787,-3.09,-8.82,3.90,-0.01,0.05,-0.04
2024-12-25 19:00:37,791,860,905,831,788,-3.09,-8.74,3.87,-0.03,0.01,-0.03
2024-12-25 19:00:37,790,860,905,833,787,-3.00,-8.82,3.86,-0.04,0.03,-0.03
2024-12-25 19:00:37,790,859,905,830,787,-2.96,-8.75,3.87,-0.04,0.02,-0.02
2024-12-25 19:00:38,788,861,906,834,787,-2.91,-8.82,3.82,-0.03,0.03,-0.01
2024-12-25 19:00:38,791,862,905,832,787,-3.11,-8.71,3.90,-0.03,0.04,-0.07
2024-12-25 19:00:38,791,861,905,830,789,-2.95,-8.86,3.89,-0.01,0.04,-0.01
2024-12-25 19:00:38,790,859,908,831,787,-3.02,-8.73,4.00,-0.04,-0.03,0.02
2024-12-25 19:00:38,789,861,906,832,787,-3.11,-8.72,3.89,-0.02,0.01,-0.00
2024-12-25 19:00:39,793,858,902,830,788,-2.88,-8.72,3.92,-0.05,0.06,-0.03
2024-12-25 19:00:39,791,860,906,832,787,-2.92,-8.77,4.05,-0.01,0.00,-0.01
2024-12-25 19:00:39,789,860,905,830,786,-2.91,-8.63,4.04,-0.04,0.00,-0.02
2024-12-25 19:00:39,791,860,905,830,787,-2.87,-8.79,4.05,-0.02,0.03,-0.00
2024-12-25 19:00:39,791,861,906,830,787,-2.93,-8.70,4.04,-0.02,0.02,-0.02
2024-12-25 19:00:39,788,860,907,832,786,-2.91,-8.77,4.13,-0.03,-0.01,-0.02
2024-12-25 19:00:40,792,859,907,834,787,-3.47,-8.80,4.28,-0.06,-0.03,-0.14
2024-12-25 19:00:40,788,858,904,829,787,-2.48,-8.87,3.91,-0.07,0.11,-0.04
2024-12-25 19:00:40,791,860,906,832,787,-2.72,-9.04,3.73,-0.06,-0.01,-0.02
2024-12-25 19:00:40,789,859,904,831,787,-2.66,-8.74,3.81,-0.15,0.06,-0.03
2024-12-25 19:00:40,791,860,908,832,788,-2.83,-8.81,3.87,-0.02,0.02,-0.05
2024-12-25 19:00:41,792,860,906,832,788,-2.72,-8.88,3.99,-0.04,0.04,0.04
2024-12-25 19:00:41,790,859,907,831,788,-2.77,-8.95,3.71,-0.04,0.03,-0.04
2024-12-25 19:00:41,792,860,905,833,787,-2.65,-8.79,4.01,-0.02,0.03,-0.01
2024-12-25 19:00:41,790,859,907,835,789,-2.79,-8.82,4.10,-0.03,-0.01,0.00
2024-12-25 19:00:41,791,861,904,832,787,-2.77,-8.91,3.89,-0.08,0.01,-0.02
2024-12-25 19:00:42,790,859,905,830,788,-2.65,-8.89,4.00,-0.03,0.01,-0.03
2024-12-25 19:00:42,791,862,905,835,789,-2.69,-8.86,4.06,-0.05,0.03,0.00
2024-12-25 19:00:42,791,858,904,830,785,-2.74,-8.81,4.09,-0.04,0.01,-0.02
2024-12-25 19:00:42,790,863,904,833,788,-2.66,-8.88,4.09,-0.04,0.04,-0.03
2024-12-25 19:00:42,794,861,907,832,787,-2.63,-8.83,4.09,0.00,0.03,-0.01
