Timestamp,Flex1,Flex2,Flex3,Flex4,Flex5,AccelX,AccelY,AccelZ,GyroX,GyroY,GyroZ
2024-12-25 19:02:29,789,771,785,784,776,-2.74,-1.30,9.97,-0.05,0.04,-0.07
2024-12-25 19:02:29,786,770,783,783,775,-3.31,-1.74,9.91,0.23,0.06,-0.20
2024-12-25 19:02:29,786,771,782,781,775,-2.25,-0.41,10.27,0.51,0.09,-0.30
2024-12-25 19:02:29,785,768,779,774,774,-2.48,0.54,10.55,0.48,-0.07,-0.15
2024-12-25 19:02:29,785,768,777,775,772,-2.23,0.69,10.08,0.02,-0.08,-0.03
2024-12-25 19:02:29,784,769,776,775,772,-2.48,0.61,10.12,0.03,0.02,0.01
2024-12-25 19:02:29,786,768,778,776,772,-2.48,0.53,10.30,-0.01,0.05,0.01
2024-12-25 19:02:29,786,772,779,779,773,-2.72,0.60,10.34,-0.09,0.08,0.05
2024-12-25 19:02:29,788,771,780,780,773,-1.98,0.31,10.16,0.02,0.06,0.02
2024-12-25 19:02:29,790,774,780,778,773,-2.54,0.78,10.63,-0.08,-0.03,-0.03
2024-12-25 19:02:29,788,774,780,780,773,-2.74,0.00,9.82,-0.02,-0.03,-0.06
2024-12-25 19:02:29,788,777,781,780,774,-1.95,0.60,10.75,0.05,0.02,-0.06
2024-12-25 19:02:29,788,774,782,780,774,-2.19,0.39,10.10,-0.03,0.00,0.16
2024-12-25 19:02:29,786,775,782,783,772,-2.34,0.57,10.34,0.00,0.02,0.02
2024-12-25 19:02:29,789,775,785,782,773,-2.08,0.80,10.34,0.01,0.05,-0.02
2024-12-25 19:02:29,787,774,783,784,773,-2.26,0.60,10.47,-0.05,-0.06,-0.10
2024-12-25 19:02:29,789,777,786,786,774,-2.21,0.47,10.26,-0.16,-0.03,-0.05
2024-12-25 19:02:29,788,778,784,784,772,-1.86,0.44,10.34,-0.68,-0.05,-0.05
2024-12-25 19:02:29,791,776,786,784,775,-2.12,-0.35,10.16,-0.00,0.14,-0.05
2024-12-25 19:02:29,787,774,780,780,775,-2.46,0.36,10.53,0.13,0.02,-0.02
2024-12-25 19:02:29,788,770,777,777,774,-2.47,-0.06,10.29,-0.07,0.16,-0.07
2024-12-25 19:02:29,786,770,778,776,775,-2.71,0.43,10.03,0.11,0.19,-0.21
2024-12-25 19:02:29,782,769,776,777,773,-2.94,0.40,9.89,0.09,0.00,-0.02
2024-12-25 19:02:29,782,769,777,776,773,-3.01,0.58,10.07,-0.07,-0.03,-0.02
2024-12-25 19:02:29,782,771,777,778,772,-2.87,0.29,10.32,-0.22,0.02,0.00
2024-12-25 19:02:29,783,769,779,775,773,-2.65,0.10,9.94,-0.10,-0.03,-0.00
2024-12-25 19:02:29,782,768,785,769,773,-2.77,0.04,10.23,-0.14,0.00,-0.00
2024-12-25 19:02:29,782,772,793,776,772,-2.96,-0.91,11.10,-0.75,-0.05,-0.15
2024-12-25 19:02:29,785,774,827,826,797,-2.43,-2.66,10.31,-1.18,0.04,-0.21
2024-12-25 19:02:29,783,769,853,847,822,-2.11,-4.45,9.39,-1.24,-0.19,0.29
2024-12-25 19:02:30,784,765,862,858,837,-1.87,-5.56,8.37,-0.84,-0.05,0.08
2024-12-25 19:02:30,782,765,896,862,836,-2.01,-6.42,7.04,-0.40,0.12,0.07
2024-12-25 19:02:30,784,763,894,866,832,-2.40,-6.50,7.20,-0.40,0.06,-0.01
2024-12-25 19:02:30,782,762,891,871,838,-2.23,-7.44,6.74,-0.46,-0.05,0.05
2024-12-25 19:02:30,781,761,886,869,845,-2.85,-8.14,6.33,-0.35,-0.15,0.04
2024-12-25 19:02:31,780,760,880,869,846,-2.14,-7.61,5.11,-0.10,-0.18,-0.13
2024-12-25 19:02:31,784,762,885,875,868,-1.56,-7.79,6.05,-0.10,0.11,-0.03
2024-12-25 19:02:31,785,761,888,897,859,-1.79,-8.41,5.76,-0.20,-0.01,-0.40
2024-12-25 19:02:31,786,761,895,891,865,-1.87,-8.36,5.53,0.03,0.15,-0.17
2024-12-25 19:02:31,789,758,896,889,886,-1.27,-8.00,5.99,0.07,-0.07,-0.14
2024-12-25 19:02:32,788,760,904,893,883,-1.51,-8.19,5.72,0.06,0.07,-0.07
2024-12-25 19:02:32,789,757,895,891,861,-1.53,-8.51,6.05,-0.13,0.11,-0.10
2024-12-25 19:02:32,789,759,893,878,852,-1.16,-8.21,5.53,-0.06,0.06,0.01
2024-12-25 19:02:32,789,758,892,893,875,-1.53,-8.25,6.03,0.10,0.06,-0.02
2024-12-25 19:02:32,788,756,892,894,865,-1.22,-8.18,5.81,-0.16,0.09,0.07
2024-12-25 19:02:32,790,758,894,888,871,-1.28,-8.43,5.92,0.10,-0.16,0.07
2024-12-25 19:02:33,787,757,891,886,863,-2.36,-8.84,5.65,-0.14,0.01,0.03
2024-12-25 19:02:33,788,758,889,886,863,-1.53,-8.38,5.63,-0.05,0.10,0.02
2024-12-25 19:02:33,787,757,891,881,862,-1.68,-8.42,6.28,0.05,0.13,0.01
2024-12-25 19:02:33,788,759,892,882,863,-2.04,-8.56,5.75,-0.00,0.17,-0.08
2024-12-25 19:02:33,788,758,893,882,861,-1.93,-8.56,5.87,-0.08,0.14,-0.09
2024-12-25 19:02:34,788,758,889,882,861,-2.41,-8.49,6.00,-0.10,-0.05,-0.11
2024-12-25 19:02:34,789,762,891,886,861,-1.71,-8.52,5.49,-0.09,0.10,-0.05
2024-12-25 19:02:34,791,761,891,882,859,-1.49,-8.30,6.19,0.03,-0.14,-0.14
2024-12-25 19:02:34,792,761,896,885,876,-1.18,-8.16,5.45,-0.33,0.28,0.01
2024-12-25 19:02:34,794,759,891,902,876,-1.05,-8.33,5.70,-0.14,0.16,-0.15
2024-12-25 19:02:35,793,757,894,915,892,-1.39,-8.82,4.85,0.02,0.01,-0.18
2024-12-25 19:02:35,794,759,894,881,879,-0.50,-9.34,5.46,-0.03,-0.11,-0.19
2024-12-25 19:02:35,793,760,894,889,870,-1.41,-8.86,5.54,-0.42,-0.15,0.11
2024-12-25 19:02:35,794,759,894,892,877,-1.54,-8.92,5.04,0.12,0.37,0.11
2024-12-25 19:02:35,793,759,894,889,863,-1.29,-8.63,5.18,0.03,0.23,-0.10
2024-12-25 19:02:35,791,758,896,873,870,-1.44,-8.66,5.31,0.05,0.07,-0.10
2024-12-25 19:02:36,792,760,890,868,860,-0.65,-8.44,5.50,-0.05,0.17,0.08
2024-12-25 19:02:36,793,759,897,888,868,-0.67,-8.50,5.04,-0.08,0.03,-0.00
2024-12-25 19:02:36,792,760,890,892,860,-1.70,-8.96,5.35,-0.26,-0.40,-0.05
2024-12-25 19:02:36,791,760,889,877,859,-1.05,-8.55,4.59,0.21,-0.17,-0.07
2024-12-25 19:02:36,793,760,891,884,864,-0.72,-8.88,5.54,-0.19,-0.08,-0.09
2024-12-25 19:02:37,792,760,891,881,871,-1.23,-8.68,5.36,-0.04,0.04,0.03
2024-12-25 19:02:37,790,760,890,884,878,-1.05,-8.90,4.95,-0.12,0.02,0.01
2024-12-25 19:02:37,791,760,889,885,878,-1.25,-8.78,5.07,-0.06,0.05,-0.04
2024-12-25 19:02:37,791,759,888,887,884,-1.18,-8.79,5.06,0.02,-0.05,-0.02
2024-12-25 19:02:37,791,759,891,892,872,-1.15,-8.80,5.23,-0.05,0.03,0.01
2024-12-25 19:02:37,791,759,890,894,878,-1.18,-8.76,4.91,0.00,0.01,-0.04
2024-12-25 19:02:38,791,759,893,887,877,-1.04,-8.82,5.16,-0.05,0.04,0.00
2024-12-25 19:02:38,791,759,893,898,882,-1.20,-8.79,5.20,-0.03,0.04,0.01
2024-12-25 19:02:38,790,760,888,885,874,-1.18,-8.79,5.08,-0.04,0.02,-0.00
2024-12-25 19:02:38,790,758,891,897,874,-1.19,-8.79,5.23,-0.03,0.03,-0.02
2024-12-25 19:02:38,788,760,888,889,874,-1.21,-8.80,5.03,-0.07,0.03,0.00
2024-12-25 19:02:39,788,761,890,887,882,-1.26,-8.76,5.12,0.01,0.05,-0.01
2024-12-25 19:02:39,787,760,886,880,875,-1.20,-8.82,5.05,-0.05,0.05,-0.02
2024-12-25 19:02:39,785,761,886,884,879,-1.22,-8.80,5.22,-0.06,0.04,-0.01
2024-12-25 19:02:39,785,761,887,889,882,-1.29,-8.66,5.20,-0.06,0.03,-0.01
2024-12-25 19:02:39,790,765,900,888,875,-1.29,-8.85,5.15,-0.18,-0.04,-0.05
2024-12-25 19:02:40,791,763,899,893,876,-1.19,-8.91,4.21,-0.16,0.03,-0.03
2024-12-25 19:02:40,791,761,893,891,877,-1.22,-8.92,4.92,0.01,0.00,-0.04
2024-12-25 19:02:40,791,760,894,881,877,-1.24,-8.88,4.79,-0.05,0.07,-0.03
2024-12-25 19:02:40,790,757,893,883,875,-1.04,-8.96,4.90,-0.00,0.02,-0.03
2024-12-25 19:02:40,791,757,889,885,880,-1.12,-8.84,4.84,-0.03,0.02,-0.03
2024-12-25 19:02:40,791,755,894,888,871,-1.10,-8.88,4.93,-0.00,0.02,-0.02
2024-12-25 19:02:41,790,757,896,879,878,-1.10,-8.91,4.89,-0.05,0.03,0.00
2024-12-25 19:02:41,791,755,889,890,878,-1.18,-8.88,4.94,-0.03,0.02,-0.03
2024-12-25 19:02:41,790,755,894,890,875,-1.02,-8.92,4.87,0.00,0.04,0.01
2024-12-25 19:02:41,789,755,888,880,869,-0.98,-8.94,4.80,-0.03,0.02,-0.00
2024-12-25 19:02:41,790,755,893,889,875,-1.16,-8.97,4.97,-0.05,0.02,-0.02
2024-12-25 19:02:42,790,757,888,885,867,-1.06,-8.85,4.91,-0.01,0.01,-0.04
2024-12-25 19:02:42,789,757,887,887,870,-1.07,-8.93,4.93,-0.04,-0.01,-0.06
2024-12-25 19:02:42,790,756,886,882,857,-1.04,-8.94,4.91,-0.03,0.04,-0.00
2024-12-25 19:02:42,790,756,894,886,867,-0.99,-8.93,4.80,-0.04,0.01,-0.01
2024-12-25 19:02:42,789,758,887,879,862,-0.96,-8.94,4.90,-0.02,0.03,-0.03
2024-12-25 19:02:43,791,757,888,875,859,-1.02,-8.94,4.84,-0.06,0.03,-0.03
2024-12-25 19:02:43,789,758,894,886,868,-0.88,-8.96,4.93,-0.03,0.02,-0.00
2024-12-25 19:02:43,789,757,889,882,858,-1.05,-8.94,4.77,-0.05,0.03,-0.01
2024-12-25 19:02:43,790,757,885,894,874,-0.92,-9.00,4.83,-0.03,0.03,-0.01
2024-12-25 19:02:43,789,758,885,884,863,-1.02,-8.93,4.89,-0.03,0.03,-0.01
2024-12-25 19:02:43,789,757,891,879,865,-0.91,-9.01,4.76,-0.05,0.03,-0.02
2024-12-25 19:02:44,790,758,884,873,864,-0.96,-9.02,4.92,-0.08,0.03,0.00
2024-12-25 19:02:44,789,758,887,878,867,-0.89,-8.91,4.79,-0.03,0.01,-0.02
2024-12-25 19:02:44,790,758,894,887,868,-1.04,-8.91,4.79,-0.05,-0.00,0.00
2024-12-25 19:02:44,789,759,887,880,857,-1.01,-8.95,4.68,-0.03,0.02,-0.02
2024-12-25 19:02:44,790,759,886,882,862,-0.81,-8.95,4.99,-0.04,0.02,-0.02
2024-12-25 19:02:45,791,759,887,890,866,-1.07,-8.91,4.96,-0.03,0.04,0.02
2024-12-25 19:02:45,790,758,885,883,864,-1.07,-9.02,4.82,-0.01,0.04,-0.01
2024-12-25 19:02:45,790,759,888,886,862,-0.93,-8.92,4.81,-0.05,0.01,-0.05
2024-12-25 19:02:45,790,760,891,877,871,-0.80,-8.99,5.04,-0.05,0.01,-0.03
2024-12-25 19:02:45,790,760,887,873,860,-0.98,-8.82,4.93,-0.04,0.01,-0.00
2024-12-25 19:02:46,790,758,894,878,861,-0.79,-8.98,5.00,-0.05,0.04,0.01
2024-12-25 19:02:46,790,759,891,880,863,-0.79,-8.87,4.95,-0.03,0.02,-0.00
2024-12-25 19:02:46,789,759,894,887,869,-0.99,-8.92,4.93,-0.03,0.02,0.01
2024-12-25 19:02:46,790,759,888,885,860,-0.98,-8.85,4.92,-0.04,0.03,-0.00
2024-12-25 19:02:46,790,760,888,878,865,-0.99,-8.88,4.99,-0.02,0.02,-0.03
2024-12-25 19:02:46,792,761,886,884,878,-0.82,-8.88,4.96,-0.02,0.03,-0.01
2024-12-25 19:02:47,792,761,887,882,862,-1.03,-8.86,4.92,-0.05,0.02,0.00
2024-12-25 19:02:47,798,763,890,882,868,-0.99,-8.92,5.09,-0.09,0.02,0.02
2024-12-25 19:02:47,804,764,894,879,863,-1.00,-8.87,4.83,0.00,0.02,-0.01
2024-12-25 19:02:47,811,764,902,890,872,-1.01,-8.86,5.01,-0.06,0.02,-0.01
2024-12-25 19:02:47,810,766,897,876,865,-0.95,-8.90,5.01,-0.05,0.04,-0.01
2024-12-25 19:02:48,812,767,900,879,862,-1.02,-8.91,4.93,-0.01,0.04,-0.00
2024-12-25 19:02:48,812,766,902,890,875,-1.02,-8.87,5.06,-0.04,0.03,-0.01
2024-12-25 19:02:48,810,767,900,877,862,-1.03,-8.84,4.98,-0.04,0.02,-0.01
2024-12-25 19:02:48,810,767,900,876,868,-1.07,-8.91,4.94,-0.05,0.02,-0.02
2024-12-25 19:02:48,810,768,895,886,864,-0.92,-8.93,4.96,-0.08,0.01,0.01
2024-12-25 19:02:49,815,768,905,883,859,-0.98,-8.91,4.88,-0.08,0.00,-0.00
2024-12-25 19:02:49,817,768,906,883,856,-1.10,-8.85,4.87,-0.02,0.03,-0.01
2024-12-25 19:02:49,816,769,901,886,864,-0.98,-8.92,5.05,-0.05,0.03,-0.02
2024-12-25 19:02:49,814,770,901,890,860,-1.10,-8.92,4.92,-0.04,0.02,-0.03
2024-12-25 19:02:49,813,769,898,887,854,-1.00,-8.94,4.88,-0.09,0.01,-0.00
2024-12-25 19:02:49,813,769,894,885,863,-0.96,-8.90,5.09,-0.02,0.03,-0.02
2024-12-25 19:02:50,811,768,896,890,866,-0.93,-8.91,4.89,-0.04,0.03,-0.01
2024-12-25 19:02:50,811,768,894,888,867,-1.02,-8.88,4.98,-0.05,0.01,-0.02
2024-12-25 19:02:50,809,762,895,894,860,-0.96,-8.88,4.83,-0.06,-0.03,-0.06
2024-12-25 19:02:50,808,759,889,890,867,-0.87,-8.98,4.82,-0.09,0.07,0.01
2024-12-25 19:02:50,808,758,893,876,856,-0.94,-8.95,4.94,-0.05,0.02,-0.02
2024-12-25 19:02:51,808,759,893,885,863,-0.91,-8.94,4.87,-0.02,0.04,-0.01
2024-12-25 19:02:51,810,761,888,891,875,-0.82,-8.95,4.94,-0.04,0.04,0.00
2024-12-25 19:02:51,811,760,892,885,853,-0.91,-8.86,5.00,-0.02,0.03,-0.01
2024-12-25 19:02:51,810,759,890,883,856,-0.90,-8.96,4.91,-0.07,0.01,-0.01
2024-12-25 19:02:51,810,762,895,889,864,-0.93,-8.90,4.93,-0.05,0.02,-0.02
2024-12-25 19:02:52,810,759,899,881,855,-0.84,-8.93,4.96,-0.03,0.02,-0.02
2024-12-25 19:02:52,808,760,892,892,871,-0.89,-8.96,5.00,-0.03,0.02,-0.02
2024-12-25 19:02:52,809,761,892,891,880,-0.90,-8.92,4.93,-0.04,0.02,0.00
2024-12-25 19:02:52,808,760,893,891,872,-0.88,-8.91,4.96,-0.03,0.03,-0.01
2024-12-25 19:02:52,809,759,887,875,867,-0.98,-8.92,4.98,-0.03,0.01,-0.01
2024-12-25 19:02:52,808,761,892,894,862,-0.91,-8.89,4.91,-0.05,0.02,-0.01
2024-12-25 19:02:53,808,761,895,883,865,-0.82,-8.95,4.96,-0.04,0.02,-0.01
2024-12-25 19:02:53,808,763,891,884,858,-0.86,-8.89,4.89,-0.05,-0.00,-0.00
2024-12-25 19:02:53,808,761,901,888,876,-0.90,-8.92,5.06,-0.04,0.03,-0.00
2024-12-25 19:02:53,807,762,889,886,861,-1.01,-8.88,4.87,-0.03,0.03,-0.01
2024-12-25 19:02:53,808,762,890,885,865,-0.88,-8.92,4.93,-0.04,0.02,-0.01
2024-12-25 19:02:54,807,763,900,895,873,-0.88,-8.93,4.92,-0.03,0.02,-0.01
2024-12-25 19:02:54,806,762,890,886,860,-0.91,-8.90,4.95,-0.03,0.03,-0.01
2024-12-25 19:02:54,807,763,892,897,871,-0.88,-8.93,5.03,-0.03,0.02,-0.01
2024-12-25 19:02:54,807,763,889,890,866,-0.96,-8.88,4.94,-0.04,0.03,-0.02
2024-12-25 19:02:54,809,762,890,877,857,-0.93,-8.92,4.92,-0.06,0.03,-0.02
2024-12-25 19:02:55,809,762,888,888,857,-0.90,-8.88,4.93,-0.05,0.03,-0.02
2024-12-25 19:02:55,808,762,894,887,862,-0.95,-8.91,4.93,-0.04,0.02,-0.01
2024-12-25 19:02:55,808,761,891,876,863,-0.86,-8.94,4.87,-0.04,0.02,0.00
2024-12-25 19:02:55,808,763,892,897,863,-1.07,-8.82,4.90,-0.05,0.00,0.00
2024-12-25 19:02:55,807,762,894,889,863,-0.97,-9.02,4.78,-0.03,0.03,-0.03
2024-12-25 19:02:55,807,764,892,890,869,-0.64,-8.91,4.89,-0.07,-0.00,0.01
2024-12-25 19:02:56,808,762,892,888,858,-1.04,-8.99,5.19,-0.02,0.03,-0.01
2024-12-25 19:02:56,808,764,892,889,864,-0.86,-8.93,4.71,-0.04,0.01,-0.01
2024-12-25 19:02:56,807,765,890,897,877,-1.00,-8.96,4.73,-0.10,0.01,0.00
2024-12-25 19:02:56,809,763,892,886,847,-1.11,-8.94,4.99,-0.07,0.02,-0.02
2024-12-25 19:02:56,808,764,892,887,862,-0.92,-8.92,5.08,-0.04,0.03,-0.02
2024-12-25 19:02:57,808,764,894,885,865,-0.89,-8.98,4.70,-0.04,0.01,-0.01
2024-12-25 19:02:57,808,764,892,885,860,-0.99,-9.02,4.75,-0.04,0.02,-0.00
2024-12-25 19:02:57,806,765,891,886,859,-0.87,-8.99,4.80,-0.06,0.02,-0.01
2024-12-25 19:02:57,806,764,894,890,866,-1.07,-8.97,4.76,-0.04,0.04,-0.00
2024-12-25 19:02:57,806,764,891,888,857,-0.94,-9.00,4.92,-0.03,0.05,0.01
2024-12-25 19:02:58,809,764,888,884,848,-0.97,-8.98,4.87,-0.04,0.03,0.02
2024-12-25 19:02:58,806,764,896,882,864,-1.13,-8.94,4.92,-0.09,-0.01,0.05
2024-12-25 19:02:58,807,764,889,892,869,-1.16,-8.93,4.83,-0.06,0.02,-0.02
2024-12-25 19:02:58,806,764,891,882,860,-0.99,-8.95,4.85,-0.04,0.03,-0.01
2024-12-25 19:02:58,807,764,884,883,856,-1.08,-9.00,4.82,-0.04,0.02,-0.02
2024-12-25 19:02:58,807,764,901,896,872,-1.12,-8.91,4.81,-0.05,0.04,-0.03
2024-12-25 19:02:59,807,765,893,886,862,-0.98,-8.95,4.75,-0.05,0.03,-0.01
2024-12-25 19:02:59,806,765,889,878,862,-1.04,-8.97,4.68,-0.03,0.03,-0.02
2024-12-25 19:02:59,806,766,892,894,873,-0.97,-9.01,4.73,-0.04,0.03,-0.01
2024-12-25 19:02:59,807,764,893,880,857,-0.92,-8.95,4.72,-0.02,0.03,-0.00
2024-12-25 19:02:59,807,764,890,886,860,-1.10,-8.94,4.71,-0.02,0.02,-0.04
2024-12-25 19:03:00,808,765,893,887,871,-0.89,-9.03,4.76,-0.03,0.04,-0.01
2024-12-25 19:03:00,803,766,891,883,859,-0.81,-9.01,4.83,-0.02,0.02,-0.00
2024-12-25 19:03:00,809,765,894,888,854,-0.97,-8.99,4.83,0.01,0.03,-0.02
2024-12-25 19:03:00,808,766,891,886,860,-0.91,-8.94,4.78,-0.03,0.05,0.02
2024-12-25 19:03:00,807,765,889,896,870,-0.99,-8.93,4.70,-0.01,0.03,-0.04
2024-12-25 19:03:01,807,765,884,883,853,-0.93,-9.06,4.53,-0.05,0.03,-0.01
2024-12-25 19:03:01,806,766,889,890,860,-0.87,-9.10,4.71,-0.05,0.04,-0.03
2024-12-25 19:03:01,806,766,890,892,876,-1.03,-8.92,4.65,-0.05,-0.00,-0.00
2024-12-25 19:03:01,807,766,890,878,850,-0.99,-9.10,4.64,-0.06,0.01,-0.01
2024-12-25 19:03:01,807,766,888,884,858,-0.97,-9.01,4.66,-0.03,0.02,-0.02
2024-12-25 19:03:01,806,766,885,891,860,-0.95,-9.00,4.61,-0.05,0.02,-0.02
2024-12-25 19:03:02,806,766,888,886,857,-1.04,-9.03,4.78,-0.02,0.01,0.01
2024-12-25 19:03:02,806,766,893,883,861,-1.13,-8.90,4.63,-0.08,0.04,-0.03
2024-12-25 19:03:02,808,767,895,888,861,-0.96,-9.12,4.70,-0.05,0.04,0.03
2024-12-25 19:03:02,806,767,892,894,858,-1.05,-9.07,4.77,-0.11,-0.01,-0.01
2024-12-25 19:03:02,806,767,887,884,865,-1.13,-8.98,4.44,-0.05,0.03,0.02
2024-12-25 19:03:03,805,767,894,884,864,-1.12,-9.09,4.66,-0.02,0.04,0.01
2024-12-25 19:03:03,806,767,892,886,858,-1.17,-9.00,4.50,-0.04,0.04,-0.01
2024-12-25 19:03:03,805,767,891,880,857,-1.13,-9.09,4.56,-0.09,0.01,-0.02
2024-12-25 19:03:03,806,768,888,883,861,-1.08,-9.05,4.70,-0.06,0.04,-0.01
2024-12-25 19:03:03,807,768,891,884,870,-1.15,-9.09,4.30,-0.04,0.03,0.00
2024-12-25 19:03:04,807,768,890,886,845,-1.13,-9.13,4.49,-0.06,0.02,-0.00
2024-12-25 19:03:04,806,766,892,875,866,-1.31,-9.04,4.23,-0.01,0.02,-0.01
2024-12-25 19:03:04,805,765,891,888,867,-1.09,-9.14,4.64,-0.01,0.02,-0.04
2024-12-25 19:03:04,806,766,896,879,865,-1.04,-9.10,4.26,-0.03,0.02,-0.02
2024-12-25 19:03:04,805,764,884,887,865,-1.11,-9.12,4.56,-0.04,0.03,-0.01
2024-12-25 19:03:04,805,764,891,890,866,-1.11,-9.07,4.43,-0.01,0.02,-0.04
2024-12-25 19:03:05,805,764,893,885,860,-0.99,-9.11,4.63,-0.02,0.04,-0.03
2024-12-25 19:03:05,806,765,891,885,858,-1.17,-9.07,4.52,-0.05,0.02,0.00
2024-12-25 19:03:05,804,764,894,888,864,-1.16,-9.01,4.64,0.00,0.01,0.04
2024-12-25 19:03:05,806,764,894,886,868,-1.24,-9.04,4.41,-0.07,0.02,-0.02
2024-12-25 19:03:05,807,764,892,894,862,-1.08,-9.06,4.56,0.02,0.02,-0.06
2024-12-25 19:03:06,807,765,888,881,856,-1.13,-9.01,4.52,-0.10,-0.02,0.03
2024-12-25 19:03:06,807,764,891,888,867,-1.24,-9.05,4.59,-0.04,0.03,-0.02
2024-12-25 19:03:06,806,764,888,883,870,-0.92,-9.08,4.54,-0.02,0.00,-0.01
2024-12-25 19:03:06,805,764,885,880,863,-1.23,-9.06,4.54,-0.04,0.02,-0.03
2024-12-25 19:03:06,805,765,892,889,857,-1.08,-9.07,4.74,-0.04,0.01,-0.03
2024-12-25 19:03:07,804,765,892,890,867,-1.08,-9.03,4.52,0.00,0.02,-0.06
2024-12-25 19:03:07,806,764,889,887,853,-1.00,-9.05,4.54,-0.05,0.04,-0.01
2024-12-25 19:03:07,808,764,891,884,868,-1.10,-9.02,4.74,-0.02,0.03,-0.00
2024-12-25 19:03:07,805,764,891,887,870,-1.19,-9.03,4.71,-0.02,0.02,0.01
2024-12-25 19:03:07,805,765,884,895,859,-1.18,-9.04,4.60,-0.03,0.03,-0.01
2024-12-25 19:03:07,807,764,889,886,853,-1.07,-9.01,4.77,-0.02,0.03,-0.01
2024-12-25 19:03:08,804,765,889,880,858,-1.13,-9.00,4.72,-0.04,0.03,0.00
2024-12-25 19:03:08,806,766,898,889,866,-1.13,-9.02,4.60,-0.02,0.02,-0.01
2024-12-25 19:03:08,806,765,887,880,856,-1.12,-9.01,4.64,-0.01,0.02,-0.03
2024-12-25 19:03:08,806,767,890,877,856,-1.04,-8.99,4.73,-0.09,0.03,0.01
2024-12-25 19:03:08,806,767,893,885,863,-1.00,-9.06,4.66,-0.03,-0.01,-0.07
2024-12-25 19:03:09,806,766,887,881,857,-1.10,-8.97,4.74,-0.01,0.03,-0.01
2024-12-25 19:03:09,805,766,895,888,857,-1.03,-8.99,4.52,-0.04,0.05,0.00
2024-12-25 19:03:09,804,765,888,885,862,-1.06,-9.04,4.66,-0.03,0.03,-0.03
2024-12-25 19:03:09,805,767,894,885,866,-1.09,-9.10,4.60,-0.07,0.00,0.05
2024-12-25 19:03:09,804,767,891,885,860,-1.14,-9.12,4.30,-0.07,0.05,0.01
2024-12-25 19:03:10,805,766,889,887,859,-1.19,-9.05,4.64,0.01,0.04,-0.04
2024-12-25 19:03:10,806,766,888,886,859,-1.15,-9.04,4.55,-0.03,0.02,0.01
2024-12-25 19:03:10,806,767,887,883,872,-1.23,-8.95,4.55,-0.02,0.08,-0.05
2024-12-25 19:03:10,805,769,894,886,861,-1.16,-9.07,4.76,-0.07,0.02,-0.01
2024-12-25 19:03:10,805,767,887,882,855,-1.09,-8.94,4.43,-0.12,0.11,0.00
2024-12-25 19:03:10,806,769,893,885,867,-1.20,-9.14,4.88,-0.04,0.04,0.01
2024-12-25 19:03:11,805,769,889,884,869,-1.26,-9.02,4.43,-0.17,-0.00,0.09
2024-12-25 19:03:11,804,766,888,882,861,-1.46,-9.07,4.45,0.05,0.02,-0.02
2024-12-25 19:03:11,805,766,895,883,872,-1.13,-8.99,4.42,-0.09,-0.01,0.03
2024-12-25 19:03:11,805,766,891,891,864,-1.02,-9.14,4.60,-0.01,0.04,-0.04
2024-12-25 19:03:11,804,764,888,879,861,-1.16,-9.14,4.34,0.00,0.05,-0.02
2024-12-25 19:03:12,803,766,885,870,857,-1.18,-9.10,4.63,-0.03,0.05,-0.02
2024-12-25 19:03:12,805,767,892,889,861,-1.17,-9.01,4.39,-0.03,0.04,-0.02
2024-12-25 19:03:12,805,766,890,888,872,-1.12,-9.08,4.46,-0.06,0.03,-0.03
2024-12-25 19:03:12,806,767,890,889,853,-1.13,-9.09,4.47,-0.03,0.03,-0.01
2024-12-25 19:03:12,804,766,893,885,863,-1.24,-8.99,4.45,0.04,0.05,-0.00
2024-12-25 19:03:13,803,767,887,879,870,-1.10,-9.14,4.42,-0.12,0.04,-0.00
2024-12-25 19:03:13,803,766,890,883,860,-1.17,-8.98,4.66,0.03,0.00,-0.02
2024-12-25 19:03:13,804,767,894,883,856,-1.30,-8.98,4.45,-0.15,0.02,-0.02
2024-12-25 19:03:13,805,766,889,884,866,-1.30,-8.99,4.41,-0.04,0.01,-0.02
2024-12-25 19:03:13,803,763,887,886,861,-1.11,-9.23,4.31,-0.04,0.04,-0.01
2024-12-25 19:03:13,802,765,891,882,860,-1.33,-9.00,4.46,0.02,0.03,-0.03
2024-12-25 19:03:14,803,763,892,883,866,-1.22,-9.08,4.52,-0.05,0.01,-0.02
2024-12-25 19:03:14,803,764,891,886,870,-1.20,-9.03,4.45,-0.07,0.05,0.01
2024-12-25 19:03:14,803,764,887,877,859,-1.40,-9.03,4.44,-0.06,-0.01,-0.05
2024-12-25 19:03:14,804,764,884,877,858,-1.33,-9.03,4.39,0.02,0.03,-0.03
2024-12-25 19:03:14,804,765,882,888,867,-1.05,-9.14,4.30,-0.07,0.02,0.04
2024-12-25 19:03:15,804,765,885,892,862,-1.37,-9.06,4.18,-0.06,-0.01,-0.04
2024-12-25 19:03:15,804,765,888,881,861,-1.34,-9.14,4.71,0.04,0.04,-0.01
2024-12-25 19:03:15,803,765,894,883,860,-1.24,-9.09,4.14,-0.01,0.03,-0.04
2024-12-25 19:03:15,805,765,895,887,872,-1.16,-8.95,4.56,-0.04,0.05,0.00
2024-12-25 19:03:15,804,765,885,882,859,-1.28,-9.06,4.05,-0.02,0.03,-0.06
2024-12-25 19:03:15,804,765,885,894,849,-1.13,-9.24,4.43,0.03,-0.02,-0.04
2024-12-25 19:03:16,805,764,890,885,873,-1.06,-9.02,4.56,-0.03,0.00,0.02
2024-12-25 19:03:16,804,765,893,886,861,-1.48,-8.93,4.49,-0.09,-0.02,-0.01
2024-12-25 19:03:16,804,766,883,887,867,-1.30,-9.00,4.62,-0.01,-0.05,-0.02
2024-12-25 19:03:16,803,764,891,896,860,-1.33,-8.91,4.36,-0.06,-0.03,-0.06
2024-12-25 19:03:16,803,765,881,877,846,-1.09,-8.99,4.95,0.03,0.03,0.04
2024-12-25 19:03:17,804,764,889,887,866,-1.39,-9.04,4.53,0.01,0.02,-0.02
2024-12-25 19:03:17,804,765,885,887,861,-1.05,-8.92,4.56,-0.10,-0.00,-0.01
2024-12-25 19:03:17,804,764,887,887,867,-1.37,-9.03,4.68,-0.09,-0.05,-0.04
2024-12-25 19:03:17,804,766,889,881,862,-1.64,-9.03,4.36,-0.12,0.05,-0.03
2024-12-25 19:03:17,804,764,891,888,870,-0.93,-9.02,4.56,0.10,0.09,-0.06
2024-12-25 19:03:18,804,765,889,888,857,-0.90,-8.94,4.83,-0.05,0.02,-0.01
2024-12-25 19:03:18,804,764,893,890,866,-1.15,-9.03,4.42,-0.06,0.03,-0.03
2024-12-25 19:03:18,804,765,889,883,859,-1.18,-9.08,4.54,-0.13,-0.00,-0.03
2024-12-25 19:03:18,804,765,882,877,850,-1.21,-9.00,4.53,0.02,0.03,-0.06
2024-12-25 19:03:18,803,764,882,869,853,-0.92,-8.95,4.71,0.17,-0.02,-0.03
2024-12-25 19:03:19,804,765,888,885,861,-1.26,-8.89,5.15,-0.09,0.07,0.07
2024-12-25 19:03:19,805,765,893,880,874,-1.24,-8.97,4.26,-0.13,-0.00,0.06
2024-12-25 19:03:19,806,765,891,881,857,-1.46,-9.01,4.65,-0.04,0.02,-0.10
2024-12-25 19:03:19,807,765,883,894,861,-0.74,-9.37,4.65,-0.20,-0.00,-0.18
2024-12-25 19:03:19,807,767,889,882,864,-1.18,-8.87,4.35,0.04,0.01,-0.04
2024-12-25 19:03:19,806,766,889,884,858,-0.83,-9.19,4.59,-0.09,0.04,0.03
2024-12-25 19:03:20,805,764,889,885,861,-0.80,-8.89,4.08,0.15,-0.16,-0.04
2024-12-25 19:03:20,805,766,890,885,870,-1.08,-9.10,4.72,-0.06,0.11,-0.07
2024-12-25 19:03:20,804,767,890,886,862,-1.19,-9.36,4.17,-0.04,0.03,-0.09
2024-12-25 19:03:20,804,767,889,886,853,-1.21,-9.26,5.13,-0.02,0.01,-0.03
2024-12-25 19:03:20,805,766,888,883,860,-1.07,-9.36,4.36,-0.01,0.10,-0.02
2024-12-25 19:03:21,805,766,887,881,865,-1.19,-9.26,4.72,-0.14,0.07,0.14
2024-12-25 19:03:21,805,767,886,880,853,-1.48,-9.03,3.96,-0.09,-0.00,0.00
2024-12-25 19:03:21,803,764,890,882,866,-1.07,-9.24,4.58,-0.06,0.06,-0.01
2024-12-25 19:03:21,806,765,889,890,868,-0.92,-8.99,4.02,-0.08,0.02,0.01
2024-12-25 19:03:21,804,766,886,875,850,-1.13,-9.25,4.31,-0.07,0.03,-0.03
2024-12-25 19:03:21,803,765,887,886,857,-1.07,-9.18,4.31,-0.04,0.03,-0.03
2024-12-25 19:03:22,804,767,890,882,868,-0.96,-9.11,4.44,-0.03,0.04,-0.03
2024-12-25 19:03:22,802,766,883,877,861,-1.04,-9.03,4.40,0.00,0.04,-0.02
2024-12-25 19:03:22,803,766,879,881,847,-1.04,-9.11,4.66,-0.03,0.08,-0.02
2024-12-25 19:03:22,802,765,889,883,862,-1.11,-8.98,4.35,-0.03,0.03,0.01
2024-12-25 19:03:22,803,765,889,889,864,-0.96,-9.17,4.30,0.16,0.13,-0.05
2024-12-25 19:03:23,803,765,887,874,851,-0.96,-9.02,4.55,-0.10,0.03,0.00
2024-12-25 19:03:23,803,766,888,885,850,-1.13,-9.10,4.32,-0.06,0.01,-0.03
2024-12-25 19:03:23,803,766,890,878,858,-1.06,-9.21,4.48,0.00,0.00,-0.01
2024-12-25 19:03:23,801,767,887,882,872,-1.22,-8.92,4.37,-0.06,0.01,-0.04
2024-12-25 19:03:23,803,765,881,880,856,-1.11,-9.17,4.74,-0.03,0.03,0.02
2024-12-25 19:03:24,800,764,881,878,853,-1.17,-9.09,4.31,-0.06,0.06,0.01
2024-12-25 19:03:24,803,767,883,888,864,-1.10,-9.10,4.35,-0.07,0.03,-0.01
2024-12-25 19:03:24,803,767,889,879,859,-1.11,-9.09,4.55,-0.03,0.01,-0.02
2024-12-25 19:03:24,801,767,888,881,848,-0.93,-9.17,4.59,-0.01,0.02,0.00
2024-12-25 19:03:24,801,768,881,894,866,-1.19,-9.09,4.06,-0.08,0.04,0.01
2024-12-25 19:03:24,801,767,890,885,857,-1.03,-9.20,4.67,-0.00,0.02,-0.03
2024-12-25 19:03:25,801,767,887,886,853,-1.09,-9.06,4.14,-0.06,0.02,-0.02
2024-12-25 19:03:25,800,768,887,879,856,-1.13,-9.11,4.60,-0.08,0.03,-0.02
2024-12-25 19:03:25,801,766,891,885,864,-1.12,-9.09,4.37,0.01,0.02,-0.04
2024-12-25 19:03:25,801,765,889,886,869,-0.92,-9.13,4.57,0.01,-0.02,-0.04
2024-12-25 19:03:25,801,764,889,883,856,-1.14,-9.28,4.31,-0.24,0.01,0.01
2024-12-25 19:03:26,800,763,892,885,864,-1.19,-9.11,4.33,0.01,0.08,-0.01
2024-12-25 19:03:26,800,765,885,882,860,-1.30,-8.95,4.45,-0.04,0.04,0.03
2024-12-25 19:03:26,801,764,893,891,866,-0.99,-9.10,4.54,-0.01,0.09,-0.01
2024-12-25 19:03:26,801,766,886,883,862,-1.10,-8.93,4.27,-0.04,-0.03,0.01
2024-12-25 19:03:26,801,768,882,884,861,-1.49,-9.10,4.39,-0.06,0.04,0.03
2024-12-25 19:03:27,800,767,888,885,864,-1.42,-9.14,4.38,-0.01,0.01,-0.01
2024-12-25 19:03:27,799,766,885,881,854,-1.37,-9.05,4.32,-0.03,0.01,-0.02
2024-12-25 19:03:27,800,765,889,881,853,-1.39,-9.05,4.23,-0.03,0.03,-0.03
2024-12-25 19:03:27,801,766,891,883,860,-1.17,-9.18,4.47,-0.08,0.01,-0.00
2024-12-25 19:03:27,800,766,893,880,854,-1.50,-8.98,4.41,-0.05,0.02,-0.00
2024-12-25 19:03:27,801,767,892,883,853,-1.46,-9.06,4.30,-0.08,0.01,-0.04
2024-12-25 19:03:28,800,765,886,887,859,-1.18,-8.97,4.34,0.09,0.03,-0.02
2024-12-25 19:03:28,799,765,891,883,861,-1.16,-9.22,4.29,-0.05,0.02,-0.05
2024-12-25 19:03:28,802,764,878,869,852,-1.07,-9.12,4.56,-0.02,0.05,-0.00
2024-12-25 19:03:28,803,764,889,885,858,-1.14,-9.05,4.16,-0.04,0.03,-0.03
2024-12-25 19:03:28,799,764,880,892,862,-1.19,-9.12,5.10,-0.07,0.09,0.06
2024-12-25 19:03:29,801,765,891,880,853,-1.32,-9.01,4.23,-0.05,0.03,0.02
2024-12-25 19:03:29,800,765,892,889,861,-1.19,-9.05,4.69,0.01,0.01,-0.02
2024-12-25 19:03:29,801,766,889,888,858,-1.47,-9.00,4.26,-0.08,0.00,-0.01
2024-12-25 19:03:29,800,766,889,880,861,-1.31,-9.05,4.61,-0.06,0.03,-0.00
2024-12-25 19:03:29,801,764,886,879,851,-0.94,-9.11,4.29,-0.00,-0.03,-0.10
2024-12-25 19:03:30,801,764,891,884,864,-1.13,-9.13,4.84,-0.06,0.01,-0.01
2024-12-25 19:03:30,799,765,889,882,859,-1.06,-9.02,4.41,-0.01,0.04,-0.03
2024-12-25 19:03:30,800,764,885,880,860,-0.96,-9.07,4.67,-0.07,0.02,0.01
2024-12-25 19:03:30,800,764,886,881,857,-1.13,-9.08,4.54,-0.02,0.02,0.02
2024-12-25 19:03:30,800,764,892,896,868,-1.16,-9.00,4.62,-0.05,0.03,-0.00
2024-12-25 19:03:30,801,765,887,881,854,-1.24,-9.03,4.66,-0.04,0.02,-0.01
2024-12-25 19:03:31,801,765,889,884,855,-1.07,-9.03,4.57,-0.03,0.03,-0.01
2024-12-25 19:03:31,801,766,889,889,875,-1.18,-9.03,4.60,-0.05,0.03,-0.00
2024-12-25 19:03:31,798,767,886,878,855,-1.26,-9.01,4.58,-0.04,0.03,0.01
2024-12-25 19:03:31,801,768,887,880,866,-1.12,-9.07,4.69,-0.02,0.02,0.01
2024-12-25 19:03:31,801,767,889,884,859,-1.24,-9.00,4.56,-0.00,0.03,0.00
2024-12-25 19:03:32,801,770,886,880,867,-1.13,-9.03,4.54,-0.03,0.05,-0.01
2024-12-25 19:03:32,802,770,884,883,851,-1.16,-9.06,4.60,-0.04,0.03,-0.01
2024-12-25 19:03:32,799,769,886,885,869,-1.22,-9.05,4.44,-0.04,0.03,-0.01
2024-12-25 19:03:32,801,772,890,883,863,-1.11,-9.08,4.58,-0.04,0.02,-0.02
2024-12-25 19:03:32,801,772,889,880,856,-1.23,-9.09,4.58,-0.08,-0.02,-0.04
2024-12-25 19:03:33,801,767,892,881,863,-1.07,-9.09,4.52,-0.01,0.04,0.00
2024-12-25 19:03:33,800,767,895,885,866,-0.92,-9.21,4.42,-0.08,-0.01,0.02
2024-12-25 19:03:33,801,767,887,877,856,-1.20,-8.95,4.49,-0.07,-0.01,-0.01
2024-12-25 19:03:33,800,765,883,884,858,-1.03,-9.11,4.38,-0.02,0.06,-0.01
2024-12-25 19:03:33,800,764,885,881,852,-1.23,-9.04,4.49,-0.05,0.03,-0.02
2024-12-25 19:03:33,800,767,887,876,845,-1.00,-9.10,4.57,-0.07,0.04,-0.01
2024-12-25 19:03:34,801,766,886,887,862,-1.05,-9.07,4.32,-0.01,0.03,-0.01
2024-12-25 19:03:34,798,768,889,876,867,-1.25,-9.03,4.45,-0.06,0.02,-0.01
2024-12-25 19:03:34,800,769,884,883,850,-1.12,-9.13,4.57,-0.01,0.05,-0.00
2024-12-25 19:03:34,800,771,892,879,859,-1.10,-9.10,4.49,-0.03,0.03,-0.00
2024-12-25 19:03:34,801,772,890,884,868,-1.26,-9.05,4.48,-0.05,0.03,-0.00
2024-12-25 19:03:35,800,773,892,880,846,-1.17,-9.07,4.50,-0.05,0.03,-0.02
2024-12-25 19:03:35,802,774,885,884,861,-1.18,-9.09,4.38,-0.05,0.02,-0.02
2024-12-25 19:03:35,801,772,892,882,859,-1.22,-9.07,4.36,-0.02,0.02,-0.03
2024-12-25 19:03:35,801,770,885,869,845,-1.23,-9.04,4.46,-0.04,0.03,-0.02
2024-12-25 19:03:35,802,773,887,881,856,-1.14,-9.11,4.44,-0.05,0.02,-0.01
2024-12-25 19:03:36,803,773,887,877,864,-1.22,-9.10,4.43,-0.02,0.04,-0.01
2024-12-25 19:03:36,801,770,887,873,839,-1.19,-9.07,4.47,-0.05,0.01,-0.01
2024-12-25 19:03:36,801,772,885,886,856,-1.21,-9.12,4.45,-0.05,0.03,-0.02
2024-12-25 19:03:36,800,773,887,887,860,-1.18,-9.06,4.52,-0.03,0.02,-0.01
2024-12-25 19:03:36,801,772,886,875,850,-1.23,-9.06,4.51,-0.01,0.02,-0.01
2024-12-25 19:03:36,801,770,885,881,856,-1.13,-9.07,4.54,-0.04,0.02,-0.05
2024-12-25 19:03:37,801,766,891,889,865,-1.16,-9.11,4.49,-0.06,-0.00,-0.02
2024-12-25 19:03:37,801,768,883,887,854,-1.09,-9.10,4.45,-0.02,0.00,-0.04
2024-12-25 19:03:37,802,764,889,888,857,-1.04,-9.10,4.52,-0.04,0.02,-0.04
2024-12-25 19:03:37,801,763,885,884,851,-1.04,-9.05,4.48,-0.05,0.02,-0.02
2024-12-25 19:03:37,801,763,888,881,861,-1.04,-9.17,4.42,-0.02,0.05,0.00
2024-12-25 19:03:38,801,763,886,886,853,-0.96,-9.09,4.49,-0.04,0.02,-0.01
2024-12-25 19:03:38,800,762,885,881,862,-1.07,-9.09,4.46,-0.04,0.04,0.00
2024-12-25 19:03:38,800,764,885,876,852,-1.09,-9.10,4.49,-0.03,0.04,-0.02
2024-12-25 19:03:38,801,764,887,876,849,-0.98,-9.17,4.71,-0.04,0.08,0.01
2024-12-25 19:03:38,801,767,888,883,865,-1.19,-9.03,3.92,-0.05,0.03,-0.00
2024-12-25 19:03:39,800,768,884,883,845,-1.10,-9.13,4.58,-0.03,0.03,-0.03
2024-12-25 19:03:39,800,766,879,881,857,-1.07,-9.15,4.34,-0.02,0.03,-0.00
2024-12-25 19:03:39,801,767,887,881,862,-1.23,-9.08,4.20,0.05,-0.02,-0.01
2024-12-25 19:03:39,799,766,883,882,846,-0.79,-9.12,4.69,-0.13,0.03,-0.01
2024-12-25 19:03:39,803,763,884,881,854,-1.09,-9.18,3.75,-0.21,-0.03,-0.01
2024-12-25 19:03:39,800,764,887,883,868,-1.02,-9.32,4.16,-0.08,0.04,-0.03
2024-12-25 19:03:40,799,765,883,879,856,-0.82,-9.14,4.08,-0.12,0.01,-0.03
2024-12-25 19:03:40,799,765,886,890,853,-0.71,-9.34,3.98,-0.06,-0.03,0.04
2024-12-25 19:03:40,801,767,885,888,853,-1.05,-9.26,4.70,-0.10,0.07,0.19
2024-12-25 19:03:40,802,766,889,878,854,-1.05,-9.41,3.87,-0.17,-0.11,0.05
2024-12-25 19:03:40,802,766,886,883,865,-1.50,-8.94,3.54,0.07,0.12,-0.01
2024-12-25 19:03:41,800,766,884,884,863,-1.15,-9.44,4.56,-0.06,0.09,0.03
2024-12-25 19:03:41,802,765,887,878,856,-1.44,-8.94,3.57,-0.05,-0.01,0.02
2024-12-25 19:03:41,802,765,886,875,846,-1.28,-9.45,4.02,-0.02,-0.02,-0.03
2024-12-25 19:03:41,801,767,885,883,857,-1.77,-9.17,3.79,-0.06,0.04,-0.01
2024-12-25 19:03:41,802,767,884,876,851,-1.23,-9.26,4.04,0.04,0.02,-0.12
2024-12-25 19:03:42,802,768,881,875,841,-1.14,-9.29,4.35,0.09,0.00,-0.07
2024-12-25 19:03:42,801,767,885,883,844,-0.88,-9.24,3.84,0.04,0.02,-0.06
2024-12-25 19:03:42,803,768,885,886,849,-1.03,-9.22,4.41,-0.17,-0.02,0.02
2024-12-25 19:03:42,801,768,881,886,848,-1.45,-9.16,3.90,-0.03,0.01,0.03
2024-12-25 19:03:42,802,769,886,884,838,-1.19,-9.18,4.21,-0.04,0.04,-0.03
2024-12-25 19:03:42,802,767,890,884,852,-1.10,-9.18,4.27,0.01,0.06,-0.02
2024-12-25 19:03:43,800,768,886,883,847,-1.20,-9.09,4.22,0.05,0.06,-0.06
2024-12-25 19:03:43,800,771,886,884,843,-1.06,-9.20,4.51,-0.07,0.04,-0.03
2024-12-25 19:03:43,801,773,885,888,847,-1.12,-9.17,4.41,-0.04,0.02,-0.01
2024-12-25 19:03:43,801,772,885,885,857,-1.10,-9.12,4.25,-0.03,0.02,-0.03
2024-12-25 19:03:43,802,771,886,884,845,-1.08,-9.16,4.33,-0.04,0.02,-0.02
2024-12-25 19:03:44,801,771,888,881,858,-0.96,-9.11,4.37,-0.04,0.02,-0.02
2024-12-25 19:03:44,802,772,888,884,864,-0.98,-9.17,4.37,-0.07,0.01,-0.04
2024-12-25 19:03:44,800,769,884,878,849,-0.96,-9.16,4.37,-0.04,0.01,-0.03
2024-12-25 19:03:44,802,764,885,887,849,-1.02,-9.13,4.39,-0.04,0.03,-0.01
2024-12-25 19:03:44,802,763,888,881,852,-1.00,-9.14,4.26,-0.01,0.03,-0.03
2024-12-25 19:03:45,802,763,881,879,844,-0.89,-9.17,4.34,-0.03,0.03,-0.03
2024-12-25 19:03:45,802,764,887,886,848,-0.88,-9.14,4.41,-0.04,0.03,-0.01
2024-12-25 19:03:45,802,762,884,884,848,-0.96,-9.12,4.31,-0.03,0.03,0.01
2024-12-25 19:03:45,801,766,883,883,847,-0.89,-9.19,4.43,-0.05,0.02,-0.00
2024-12-25 19:03:45,801,767,891,884,850,-0.97,-9.17,4.48,-0.06,0.01,-0.02
2024-12-25 19:03:45,802,765,888,891,873,-1.04,-9.13,4.42,-0.03,0.04,-0.02
2024-12-25 19:03:46,802,766,884,878,849,-0.84,-9.18,4.52,-0.02,0.04,-0.01
2024-12-25 19:03:46,801,766,887,874,852,-0.91,-9.15,4.39,-0.03,0.02,-0.00
2024-12-25 19:03:46,800,766,885,884,854,-0.99,-9.14,4.36,-0.04,0.04,-0.01
2024-12-25 19:03:46,801,767,887,882,846,-0.97,-9.16,4.41,-0.05,0.01,-0.03
2024-12-25 19:03:46,801,764,884,881,846,-0.91,-9.18,4.37,-0.03,0.04,-0.00
2024-12-25 19:03:47,801,766,884,890,862,-0.94,-9.08,4.33,-0.05,0.04,-0.01
2024-12-25 19:03:47,801,766,889,874,849,-0.96,-9.40,4.48,-0.03,0.08,0.10
2024-12-25 19:03:47,802,768,882,887,845,-1.17,-9.17,4.47,0.03,0.04,-0.01
2024-12-25 19:03:47,801,768,887,884,860,-1.21,-8.97,4.50,-0.08,-0.00,-0.06
2024-12-25 19:03:47,801,767,884,878,844,-0.81,-9.07,4.51,-0.01,0.02,-0.07
2024-12-25 19:03:48,801,768,888,878,853,-0.88,-9.29,4.12,-0.04,0.04,-0.05
2024-12-25 19:03:48,801,768,885,885,863,-0.73,-9.28,4.67,0.01,0.10,-0.06
2024-12-25 19:03:48,801,768,886,883,849,-0.67,-9.18,4.13,-0.10,-0.06,0.01
2024-12-25 19:03:48,800,770,884,878,848,-0.75,-9.18,4.51,-0.06,-0.00,0.02
2024-12-25 19:03:48,801,768,889,893,870,-1.20,-9.14,4.31,-0.09,0.02,-0.06
2024-12-25 19:03:48,801,768,883,878,843,-0.72,-9.02,4.50,0.04,0.04,0.07
2024-12-25 19:03:49,802,768,885,882,841,-0.98,-9.39,4.99,-0.26,0.12,0.06
2024-12-25 19:03:49,801,770,889,888,868,-0.90,-9.14,4.09,0.06,0.13,-0.13
2024-12-25 19:03:49,802,770,886,883,855,-0.75,-9.31,4.13,0.01,0.08,0.02
2024-12-25 19:03:49,802,770,888,879,875,-1.06,-8.84,4.42,0.06,-0.01,-0.02
2024-12-25 19:03:49,802,771,885,884,860,-0.87,-9.04,5.04,-0.14,-0.03,0.04
2024-12-25 19:03:50,801,769,884,880,860,-1.06,-9.20,4.45,-0.19,0.09,-0.06
2024-12-25 19:03:50,801,776,890,887,852,-0.77,-9.22,4.11,-0.04,0.03,-0.07
2024-12-25 19:03:50,802,769,891,882,858,-1.77,-9.71,3.71,-0.47,-0.02,-0.16
2024-12-25 19:03:50,803,771,893,882,859,-1.09,-9.95,3.21,-0.08,0.18,0.01
2024-12-25 19:03:50,802,771,893,878,861,-0.77,-9.49,3.36,-0.03,-0.08,-0.02
2024-12-25 19:03:51,802,767,890,884,862,-0.97,-9.40,3.49,-0.01,-0.02,0.06
2024-12-25 19:03:51,801,769,886,882,857,-1.17,-9.35,3.66,0.03,-0.03,-0.09
2024-12-25 19:03:51,801,768,881,878,858,-0.48,-9.46,4.21,0.01,0.02,-0.09
2024-12-25 19:03:51,802,767,892,881,863,-0.51,-9.36,3.82,-0.03,0.03,-0.01
2024-12-25 19:03:51,802,765,888,884,858,-0.53,-9.43,4.07,-0.05,-0.03,-0.05
2024-12-25 19:03:51,801,767,886,880,861,-0.49,-9.42,3.99,0.00,-0.10,-0.07
2024-12-25 19:03:52,803,766,883,881,858,-0.59,-9.31,3.38,-0.17,-0.04,-0.09
2024-12-25 19:03:52,801,769,887,882,852,-0.07,-9.60,3.79,0.22,0.12,0.08
2024-12-25 19:03:52,802,764,882,873,857,-0.64,-9.26,4.39,-0.11,-0.03,-0.04
2024-12-25 19:03:52,802,769,888,873,861,-0.32,-9.46,3.90,0.02,0.10,0.02
2024-12-25 19:03:52,802,768,888,884,861,-0.73,-9.24,4.46,-0.01,0.03,0.05
2024-12-25 19:03:53,801,768,884,894,857,-0.81,-9.11,4.14,-0.01,0.06,0.03
2024-12-25 19:03:53,802,765,885,882,852,-0.95,-9.01,4.51,0.01,-0.04,0.06
2024-12-25 19:03:53,802,765,889,884,856,-0.97,-9.19,4.50,-0.05,-0.00,0.02
2024-12-25 19:03:53,805,766,889,883,862,-0.91,-9.09,4.36,-0.03,0.07,-0.04
2024-12-25 19:03:53,803,764,884,880,849,-0.98,-9.15,4.45,-0.05,-0.00,0.03
2024-12-25 19:03:54,801,772,882,886,853,-0.83,-9.10,4.57,0.03,0.01,-0.09
2024-12-25 19:03:54,801,767,887,880,861,-0.63,-9.23,4.52,-0.09,-0.04,-0.14
2024-12-25 19:03:54,803,765,887,874,859,-0.49,-9.04,4.68,-0.01,0.05,0.05
2024-12-25 19:03:54,803,769,888,880,853,-0.75,-9.20,4.29,-0.08,0.06,0.00
2024-12-25 19:03:54,802,767,887,880,860,-0.82,-9.18,4.39,-0.04,0.01,-0.03
2024-12-25 19:03:54,802,767,887,879,856,-0.72,-9.12,4.22,-0.05,0.01,-0.03
2024-12-25 19:03:55,801,766,882,873,858,-0.78,-9.25,4.61,-0.09,-0.02,0.02
2024-12-25 19:03:55,802,769,886,879,861,-0.96,-9.07,4.28,-0.05,0.05,-0.01
2024-12-25 19:03:55,802,769,885,878,864,-1.02,-9.23,4.17,-0.06,0.05,0.04
2024-12-25 19:03:55,803,770,881,878,857,-0.91,-9.13,4.15,-0.02,0.01,-0.01
2024-12-25 19:03:55,802,770,888,876,854,-0.98,-9.05,4.65,-0.13,0.01,-0.08
2024-12-25 19:03:56,805,765,887,883,860,-0.49,-9.36,4.21,0.02,0.02,0.05
2024-12-25 19:03:56,803,772,885,874,854,-0.96,-9.18,4.35,-0.22,-0.10,-0.05
2024-12-25 19:03:56,800,770,885,879,851,-0.84,-9.28,3.81,0.01,0.04,0.02
2024-12-25 19:03:56,802,769,884,878,857,-0.75,-9.30,4.02,-0.01,0.03,-0.07
2024-12-25 19:03:56,801,769,885,884,861,-0.61,-9.23,4.26,0.05,0.04,-0.05
2024-12-25 19:03:56,802,766,883,874,856,-0.51,-9.26,4.26,0.03,0.03,-0.02
2024-12-25 19:03:57,801,766,883,882,859,-0.57,-9.26,4.37,0.02,0.02,-0.06
2024-12-25 19:03:57,802,771,884,884,858,-0.43,-9.26,4.28,-0.11,0.02,0.08
2024-12-25 19:03:57,803,769,889,875,855,-1.09,-9.09,4.37,0.13,0.06,-0.00
2024-12-25 19:03:57,801,766,882,882,852,-0.55,-9.21,4.31,-0.13,0.03,-0.01
2024-12-25 19:03:57,802,769,882,882,858,-0.01,-9.12,4.36,0.28,0.08,-0.01
2024-12-25 19:03:58,803,769,894,881,864,-1.30,-9.17,4.90,-0.26,0.00,-0.01
2024-12-25 19:03:58,801,766,884,875,848,-0.85,-9.28,3.76,-0.04,0.09,-0.02
2024-12-25 19:03:58,804,768,890,877,862,-0.63,-9.22,4.59,-0.01,0.06,0.03
2024-12-25 19:03:58,803,770,885,883,859,-0.52,-9.39,4.10,-0.10,-0.07,-0.09
2024-12-25 19:03:58,805,768,883,878,850,-0.81,-9.17,4.15,-0.08,0.02,0.05
2024-12-25 19:03:59,802,770,888,881,862,-0.62,-9.16,4.57,0.06,0.02,-0.05
2024-12-25 19:03:59,801,766,889,887,868,-0.80,-9.16,3.83,-0.11,0.02,-0.05
2024-12-25 19:03:59,804,768,887,878,861,-0.34,-9.44,4.86,0.08,0.11,-0.00
2024-12-25 19:03:59,802,765,879,873,860,-0.37,-9.14,3.89,-0.23,-0.04,-0.01
2024-12-25 19:03:59,803,770,887,879,860,-0.79,-9.18,4.11,-0.03,0.01,0.04
2024-12-25 19:03:59,802,768,884,887,862,-0.55,-9.21,4.27,0.04,0.04,-0.03
2024-12-25 19:04:00,803,765,882,874,855,-0.44,-9.31,4.13,-0.02,0.03,0.00
2024-12-25 19:04:00,801,771,884,878,858,-0.61,-9.25,4.19,-0.04,0.03,0.01
2024-12-25 19:04:00,800,768,886,886,860,-0.60,-9.31,4.24,-0.03,0.04,-0.02
2024-12-25 19:04:00,803,767,884,869,854,-0.59,-9.23,4.25,-0.05,0.04,-0.06
2024-12-25 19:04:00,803,767,881,872,854,-0.31,-9.34,4.21,-0.03,0.02,-0.03
2024-12-25 19:04:01,804,769,891,887,873,-0.45,-9.34,4.22,-0.03,0.02,0.04
2024-12-25 19:04:01,802,764,885,877,852,-0.60,-9.27,4.15,-0.04,-0.01,-0.01
2024-12-25 19:04:01,801,770,887,879,855,-0.66,-9.22,4.28,0.01,0.02,0.00
2024-12-25 19:04:01,804,768,883,880,859,-0.63,-9.27,4.35,-0.02,0.03,-0.02
2024-12-25 19:04:01,800,766,883,880,861,-0.54,-9.22,4.47,-0.04,0.05,-0.01
2024-12-25 19:04:02,805,766,888,876,857,-0.64,-9.21,4.11,-0.02,0.03,-0.05
2024-12-25 19:04:02,802,768,883,880,858,-0.43,-9.24,4.48,-0.05,0.03,0.01
2024-12-25 19:04:02,803,765,890,875,856,-0.70,-9.19,4.48,-0.02,0.03,-0.01
2024-12-25 19:04:02,801,771,884,870,851,-0.66,-9.17,4.52,-0.03,0.03,-0.01
2024-12-25 19:04:02,803,770,886,876,861,-0.60,-9.22,4.37,-0.06,0.01,-0.04
2024-12-25 19:04:02,803,766,887,882,855,-0.68,-9.13,4.36,-0.03,0.03,-0.07
2024-12-25 19:04:03,802,761,887,869,862,-0.69,-9.15,4.43,-0.07,0.03,-0.05
2024-12-25 19:04:03,803,765,884,878,860,-0.15,-9.17,4.69,0.01,0.05,-0.04
2024-12-25 19:04:03,799,763,886,879,855,-0.60,-9.13,4.42,-0.04,0.04,0.03
2024-12-25 19:04:03,802,766,884,885,853,-0.36,-9.25,4.47,-0.02,0.04,-0.00
2024-12-25 19:04:03,804,767,882,873,859,-0.57,-9.16,4.31,-0.04,0.01,0.00
2024-12-25 19:04:04,801,766,887,882,870,-0.49,-9.23,4.38,-0.03,0.05,-0.01
2024-12-25 19:04:04,801,768,886,878,858,-0.61,-9.20,4.54,-0.06,0.02,-0.05
2024-12-25 19:04:04,800,768,890,882,853,-0.27,-9.31,4.32,-0.05,0.02,-0.04
2024-12-25 19:04:04,801,766,885,878,871,-0.59,-9.24,4.02,-0.12,-0.04,-0.01
2024-12-25 19:04:04,805,765,883,869,855,-0.66,-9.27,4.30,-0.05,0.03,-0.01
2024-12-25 19:04:05,804,773,885,879,864,-0.43,-9.20,4.61,0.01,0.03,-0.03
2024-12-25 19:04:05,803,772,884,879,863,-0.60,-9.14,4.27,-0.02,0.03,-0.05
2024-12-25 19:04:05,803,770,881,873,850,-0.43,-9.28,4.51,-0.06,0.04,-0.00
2024-12-25 19:04:05,803,769,884,881,858,-0.60,-9.35,4.32,0.02,-0.06,0.04
2024-12-25 19:04:05,803,771,883,885,865,-0.66,-9.15,4.09,0.04,0.14,-0.05
2024-12-25 19:04:05,803,769,882,876,850,-0.40,-9.45,4.52,-0.13,0.03,0.06
2024-12-25 19:04:06,801,768,888,866,855,-0.63,-9.15,4.47,0.02,0.02,-0.04
2024-12-25 19:04:06,802,768,881,883,858,-0.63,-9.27,4.76,-0.02,0.03,0.05
2024-12-25 19:04:06,801,770,893,890,870,-0.69,-9.10,4.26,-0.02,0.06,0.01
2024-12-25 19:04:06,802,768,886,873,860,-0.59,-9.24,4.17,-0.04,0.02,-0.03
2024-12-25 19:04:06,802,769,891,881,862,-0.46,-9.12,4.19,0.01,-0.05,-0.02
2024-12-25 19:04:07,801,770,888,883,869,-0.54,-9.18,4.50,-0.09,0.01,-0.01
2024-12-25 19:04:07,804,765,883,876,858,-0.29,-9.31,4.64,-0.16,-0.04,-0.03
2024-12-25 19:04:07,802,769,884,878,857,-0.48,-9.27,4.34,0.07,0.04,-0.01
2024-12-25 19:04:07,801,769,882,884,860,-0.44,-9.30,4.13,-0.04,0.00,-0.03
2024-12-25 19:04:07,801,766,882,879,857,-0.61,-9.10,4.18,-0.09,0.02,-0.00
2024-12-25 19:04:08,802,770,882,876,866,-0.23,-9.34,4.41,0.00,0.05,-0.02
2024-12-25 19:04:08,806,770,888,875,868,-0.40,-9.18,3.99,-0.05,0.00,0.02
2024-12-25 19:04:08,799,767,882,874,857,-0.59,-9.14,4.60,-0.03,0.06,-0.03
2024-12-25 19:04:08,806,768,885,874,855,-0.28,-9.25,4.23,0.00,0.01,0.00
2024-12-25 19:04:08,801,769,882,877,861,-0.63,-9.15,4.39,-0.02,0.02,-0.00
2024-12-25 19:04:08,801,768,886,880,858,-0.53,-9.23,4.48,-0.05,0.05,0.01
2024-12-25 19:04:09,806,769,886,867,858,-0.52,-9.15,4.48,0.00,0.03,-0.02
2024-12-25 19:04:09,800,769,884,879,852,-0.48,-9.21,4.48,-0.03,0.03,0.00
2024-12-25 19:04:09,804,774,885,885,862,-0.64,-9.15,4.37,-0.03,0.00,-0.02
2024-12-25 19:04:09,800,774,878,870,849,-0.68,-9.07,4.50,-0.03,0.03,-0.03
2024-12-25 19:04:09,802,777,881,883,864,-0.27,-9.28,4.84,-0.03,0.03,-0.01
2024-12-25 19:04:10,807,777,891,888,870,-0.62,-9.09,4.60,-0.09,0.01,0.02
2024-12-25 19:04:10,800,773,886,876,851,-0.63,-9.15,4.09,-0.02,0.02,-0.01
2024-12-25 19:04:10,807,770,882,884,869,-0.57,-9.17,4.43,-0.03,0.04,-0.02
2024-12-25 19:04:10,801,769,883,876,859,-0.54,-9.24,4.55,-0.00,0.09,0.04
2024-12-25 19:04:10,804,767,882,879,861,-0.21,-9.31,4.52,-0.07,-0.01,0.01
2024-12-25 19:04:11,800,765,889,870,860,-0.79,-9.21,4.21,-0.07,0.07,-0.09
2024-12-25 19:04:11,807,770,884,881,864,-0.43,-9.20,4.63,-0.06,0.03,0.02
2024-12-25 19:04:11,797,770,891,878,860,-0.50,-9.23,4.38,-0.01,0.02,-0.02
2024-12-25 19:04:11,805,768,880,875,870,-0.57,-9.18,4.30,-0.10,0.03,0.00
2024-12-25 19:04:11,806,770,888,877,857,-0.64,-9.26,4.29,-0.06,0.02,-0.02
2024-12-25 19:04:11,802,772,884,881,860,-0.52,-9.25,4.39,0.01,0.02,0.00
2024-12-25 19:04:12,803,773,885,873,853,-0.59,-9.23,4.32,-0.02,0.04,-0.02
2024-12-25 19:04:12,800,763,880,885,865,-0.49,-9.21,4.32,-0.06,0.03,-0.01
2024-12-25 19:04:12,801,769,884,877,860,-0.52,-9.24,4.44,-0.03,0.02,-0.02
2024-12-25 19:04:12,798,764,885,880,858,-0.42,-9.25,4.46,-0.05,0.04,0.00
2024-12-25 19:04:12,798,767,886,877,862,-0.54,-9.08,4.56,-0.04,0.00,0.01
2024-12-25 19:04:13,804,767,884,875,864,-0.33,-9.19,4.06,-0.02,0.03,0.01
2024-12-25 19:04:13,804,769,881,880,855,-0.57,-9.22,4.35,-0.06,0.02,-0.03
2024-12-25 19:04:13,803,771,882,884,861,-0.96,-9.12,4.43,-0.07,0.01,-0.02
2024-12-25 19:04:13,799,771,887,875,862,-0.34,-9.27,4.36,-0.05,0.03,-0.04
2024-12-25 19:04:13,806,769,886,878,857,-0.31,-9.27,4.41,-0.05,-0.00,-0.03
2024-12-25 19:04:13,801,775,888,879,857,-0.69,-9.16,4.09,-0.06,-0.01,0.04
2024-12-25 19:04:14,801,770,892,877,870,-0.87,-9.17,4.37,0.02,0.08,-0.02
2024-12-25 19:04:14,804,767,885,873,849,-0.48,-9.27,4.41,-0.06,0.03,0.00
2024-12-25 19:04:14,808,766,886,879,855,-0.73,-9.18,4.37,-0.05,0.03,0.01
2024-12-25 19:04:14,802,773,877,883,858,-0.52,-9.12,4.62,-0.04,0.04,-0.02
2024-12-25 19:04:14,796,770,888,879,861,-0.73,-9.21,4.18,-0.05,0.01,-0.00
2024-12-25 19:04:15,799,772,878,872,864,-0.67,-9.22,4.34,-0.06,0.03,-0.01
2024-12-25 19:04:15,801,776,887,874,865,-0.67,-9.19,4.45,-0.04,0.03,-0.02
2024-12-25 19:04:15,800,773,880,880,858,-0.62,-9.39,4.29,-0.17,0.02,0.01
2024-12-25 19:04:15,805,766,889,870,860,-0.74,-8.98,4.12,-0.03,-0.06,-0.13
2024-12-25 19:04:15,800,767,881,884,865,-0.26,-9.41,4.35,-0.05,0.03,-0.01
2024-12-25 19:04:16,802,767,881,873,859,-0.57,-9.28,4.22,-0.01,0.01,0.01
2024-12-25 19:04:16,803,773,875,875,866,-0.53,-9.27,4.12,0.02,0.04,-0.00
2024-12-25 19:04:16,802,769,881,875,859,-0.44,-9.31,4.30,-0.02,0.04,-0.01
2024-12-25 19:04:16,800,773,890,878,853,-0.28,-9.30,4.14,0.01,0.09,-0.01
2024-12-25 19:04:16,801,768,881,877,850,-0.59,-9.17,4.42,-0.05,0.02,-0.01
2024-12-25 19:04:16,807,769,888,876,860,-0.31,-9.26,4.59,-0.07,0.02,0.05
2024-12-25 19:04:17,803,773,883,875,861,-0.70,-9.19,4.20,-0.03,0.02,-0.02
2024-12-25 19:04:17,805,771,878,872,845,-0.49,-9.27,4.33,-0.08,0.02,-0.02
2024-12-25 19:04:17,807,764,886,884,858,-0.29,-9.27,4.26,0.19,0.02,-0.08
2024-12-25 19:04:17,805,772,887,881,859,-0.99,-9.04,4.09,-0.05,0.05,-0.00
2024-12-25 19:04:17,806,769,883,874,850,-0.42,-9.26,4.74,0.08,-0.01,0.01
2024-12-25 19:04:18,808,771,885,880,855,-0.53,-9.14,4.13,-0.14,-0.03,0.01
2024-12-25 19:04:18,810,769,885,884,875,-0.63,-9.20,4.68,-0.02,0.04,-0.05
2024-12-25 19:04:18,806,769,883,876,856,-0.66,-9.16,4.39,-0.04,0.06,0.01
2024-12-25 19:04:18,808,769,887,876,860,-0.74,-9.22,4.62,-0.06,0.04,-0.02
2024-12-25 19:04:18,807,777,893,876,864,-0.75,-9.08,4.31,-0.03,0.01,0.01
2024-12-25 19:04:19,807,772,885,878,850,-0.62,-9.03,4.39,-0.01,0.02,0.03
2024-12-25 19:04:19,803,769,884,876,859,-0.48,-9.06,4.42,-0.08,0.04,-0.04
2024-12-25 19:04:19,808,771,887,877,862,-0.74,-9.15,3.91,-0.19,0.07,-0.03
2024-12-25 19:04:19,806,772,880,874,856,-0.80,-9.25,4.33,-0.05,0.05,0.02
2024-12-25 19:04:19,809,776,877,882,857,-0.77,-9.21,3.90,0.15,-0.05,-0.12
2024-12-25 19:04:19,803,773,880,884,860,-0.47,-9.29,4.50,-0.15,0.06,-0.05
2024-12-25 19:04:20,805,774,884,876,850,-0.74,-9.27,4.24,-0.00,0.00,-0.04
2024-12-25 19:04:20,804,770,879,872,856,-0.58,-9.07,4.74,0.01,0.03,-0.04
2024-12-25 19:04:20,804,770,889,875,859,-0.56,-9.20,4.41,-0.04,0.03,-0.04
2024-12-25 19:04:20,802,773,885,878,853,-0.55,-9.18,4.78,0.02,0.02,-0.01
2024-12-25 19:04:20,800,773,891,877,850,-0.59,-9.10,4.60,-0.02,0.05,-0.01
2024-12-25 19:04:21,808,770,884,877,861,-0.49,-9.09,4.47,0.02,0.03,-0.04
2024-12-25 19:04:21,808,777,882,879,850,-0.66,-9.15,4.50,-0.02,0.01,-0.04
2024-12-25 19:04:21,809,773,884,872,852,-0.76,-9.21,4.52,-0.05,0.01,0.01
2024-12-25 19:04:21,802,777,884,877,858,-0.68,-9.20,4.42,-0.03,0.02,0.02
2024-12-25 19:04:21,805,774,888,880,856,-0.73,-9.16,4.45,-0.02,0.04,0.03
2024-12-25 19:04:22,805,772,881,874,851,-0.53,-9.12,4.42,-0.02,0.02,0.02
2024-12-25 19:04:22,803,775,881,877,851,-0.39,-9.08,4.36,-0.03,-0.01,-0.01
2024-12-25 19:04:22,803,770,886,883,856,-0.34,-9.04,4.38,-0.04,0.02,0.03
2024-12-25 19:04:22,804,774,882,875,855,-0.40,-9.05,4.38,-0.05,-0.00,0.00
2024-12-25 19:04:22,806,772,883,875,858,-0.49,-8.97,4.56,-0.03,0.01,-0.05
2024-12-25 19:04:22,802,772,885,880,866,-0.24,-9.10,4.18,-0.04,0.00,-0.01
2024-12-25 19:04:23,805,769,884,874,848,-0.61,-9.15,4.41,-0.12,-0.01,0.01
2024-12-25 19:04:23,805,764,885,880,858,-0.46,-9.23,4.55,-0.05,0.02,-0.03
2024-12-25 19:04:23,804,766,890,878,851,-0.48,-9.21,4.46,-0.06,0.03,0.01
2024-12-25 19:04:23,806,764,882,875,849,-0.43,-9.17,4.66,-0.04,0.04,0.00
2024-12-25 19:04:23,806,764,886,876,854,-0.53,-9.13,4.56,-0.03,0.03,0.00
2024-12-25 19:04:24,807,768,884,884,866,-0.42,-9.20,4.44,-0.04,0.03,-0.00
2024-12-25 19:04:24,807,769,882,873,852,-0.44,-9.16,4.42,-0.05,0.03,-0.00
2024-12-25 19:04:24,801,772,886,879,849,-0.57,-9.12,4.52,-0.04,0.03,-0.00
2024-12-25 19:04:24,798,767,886,879,858,-0.47,-9.16,4.47,-0.04,0.02,-0.00
2024-12-25 19:04:24,807,764,881,877,842,-0.50,-9.17,4.48,-0.04,0.02,-0.01
2024-12-25 19:04:25,804,772,883,878,859,-0.53,-9.15,4.45,-0.04,0.03,-0.00
2024-12-25 19:04:25,809,766,887,887,859,-0.48,-9.19,4.48,-0.03,0.02,-0.02
2024-12-25 19:04:25,806,772,876,880,857,-0.49,-9.17,4.47,-0.04,0.03,-0.01
2024-12-25 19:04:25,804,771,886,876,854,-0.53,-9.16,4.50,-0.04,0.02,-0.01
2024-12-25 19:04:25,805,766,885,874,854,-0.37,-9.14,4.58,0.01,0.11,0.02
2024-12-25 19:04:25,805,770,874,875,857,-0.43,-9.17,4.32,0.01,0.10,0.02
2024-12-25 19:04:26,806,770,893,885,857,-0.51,-9.09,2.45,-0.19,-0.03,0.01
2024-12-25 19:04:26,805,770,898,903,878,-0.69,-9.16,5.37,-0.22,0.04,0.05
2024-12-25 19:04:26,805,770,887,879,844,-0.42,-9.07,4.12,-0.00,0.07,0.03
2024-12-25 19:04:26,803,770,898,888,846,-0.99,-9.12,4.56,-0.12,0.15,0.04
2024-12-25 19:04:26,805,771,891,879,864,-0.45,-9.09,4.64,0.01,-0.07,-0.04
2024-12-25 19:04:27,805,770,885,882,848,-0.87,-9.08,4.50,-0.04,0.03,-0.01
2024-12-25 19:04:27,805,770,887,881,863,-0.75,-9.20,4.53,-0.03,0.02,-0.04
2024-12-25 19:04:27,804,770,888,880,863,-0.74,-9.06,4.60,-0.04,0.04,0.01
2024-12-25 19:04:27,804,769,885,871,848,-0.61,-9.28,4.33,-0.12,0.01,0.02
2024-12-25 19:04:27,804,771,887,877,846,-1.08,-9.22,4.27,-0.07,-0.01,-0.02
2024-12-25 19:04:28,803,771,889,881,855,-0.50,-9.15,4.19,-0.01,0.05,-0.00
2024-12-25 19:04:28,803,768,884,867,847,-0.61,-8.74,6.07,-0.03,0.06,-0.05
2024-12-25 19:04:28,803,770,887,885,847,-0.80,-9.05,3.85,-0.12,0.06,0.02
2024-12-25 19:04:28,804,771,886,877,859,-0.58,-9.28,4.61,-0.19,0.02,-0.08
2024-12-25 19:04:28,805,771,887,872,855,-0.80,-9.22,4.42,0.03,0.01,0.04
2024-12-25 19:04:28,804,773,891,887,855,-0.69,-9.23,4.08,-0.11,-0.01,0.02
2024-12-25 19:04:29,803,773,887,874,858,-0.74,-9.18,4.47,-0.04,0.04,-0.01
