Timestamp,Flex1,Flex2,Flex3,Flex4,Flex5,AccelX,AccelY,AccelZ,GyroX,GyroY,GyroZ
2024-12-25 19:24:29,796,802,809,805,779,-1.66,-0.19,10.83,0.09,0.07,-0.09
2024-12-25 19:24:29,792,798,791,789,781,-1.50,-0.32,10.06,1.10,0.13,-0.22
2024-12-25 19:24:29,784,779,780,781,780,-1.98,2.07,10.32,0.28,0.15,-0.15
2024-12-25 19:24:29,775,777,780,778,776,-1.17,2.49,10.18,-0.29,-0.05,0.01
2024-12-25 19:24:29,785,797,805,800,776,-3.14,1.25,9.08,-0.36,-0.13,0.07
2024-12-25 19:24:29,786,796,806,809,777,-1.49,0.35,11.04,-0.08,0.07,-0.20
2024-12-25 19:24:29,779,792,805,802,776,-1.67,1.03,9.86,0.46,0.16,0.00
2024-12-25 19:24:29,776,782,793,792,772,-1.93,2.14,10.30,1.18,-0.08,-0.18
2024-12-25 19:24:29,779,786,804,802,774,-0.15,1.90,10.57,-1.03,-0.55,0.15
2024-12-25 19:24:29,789,798,817,815,776,-0.79,1.21,10.07,-0.37,-0.25,-0.23
2024-12-25 19:24:29,787,785,789,787,773,-1.03,0.64,11.29,0.27,0.23,-0.12
2024-12-25 19:24:29,790,803,826,821,777,-0.90,0.63,10.08,-0.60,-0.08,0.05
2024-12-25 19:24:29,791,793,801,801,775,-1.10,0.67,11.18,-0.00,0.08,-0.02
2024-12-25 19:24:29,792,791,801,798,774,-1.12,0.39,10.38,-0.12,-0.09,-0.02
2024-12-25 19:24:29,793,793,802,800,775,-0.45,0.42,11.01,0.00,-0.14,-0.15
2024-12-25 19:24:29,793,796,805,802,774,0.28,0.45,10.51,-0.28,-0.28,-0.04
2024-12-25 19:24:29,794,796,807,804,777,0.04,0.05,10.32,0.01,-0.00,-0.06
2024-12-25 19:24:29,794,797,807,803,775,-0.24,0.14,11.00,-0.04,0.19,0.17
2024-12-25 19:24:29,791,795,806,804,775,-0.63,0.22,10.39,-0.10,0.00,-0.03
2024-12-25 19:24:29,794,798,808,806,776,-0.10,-0.35,10.73,-0.29,0.10,0.03
2024-12-25 19:24:29,793,797,809,805,776,-0.52,-0.13,10.49,-0.02,0.01,-0.19
2024-12-25 19:24:29,793,797,809,805,775,-0.30,-0.27,10.65,0.04,0.01,-0.15
2024-12-25 19:24:29,794,799,808,806,775,0.11,-0.13,10.77,-0.01,-0.10,-0.03
2024-12-25 19:24:29,794,798,808,805,775,-0.31,-0.23,10.78,-0.04,0.05,0.08
2024-12-25 19:24:29,792,800,809,806,775,-0.51,-0.19,10.62,-0.05,0.24,-0.11
2024-12-25 19:24:29,791,790,793,788,772,-0.28,-0.26,10.70,0.59,0.33,-0.05
2024-12-25 19:24:29,792,788,789,787,775,-1.29,0.30,10.55,-0.14,0.53,0.26
2024-12-25 19:24:29,791,793,793,791,773,-1.19,0.43,10.64,-0.07,0.20,0.05
2024-12-25 19:24:29,790,791,792,791,775,-0.68,0.29,9.89,-0.02,-0.03,-0.05
2024-12-25 19:24:29,792,791,792,792,774,-0.73,0.43,10.98,-0.05,0.00,0.05
2024-12-25 19:24:29,791,792,795,792,774,-0.86,0.53,10.14,-0.04,-0.01,0.04
2024-12-25 19:24:29,791,792,795,790,774,-0.51,0.71,10.82,-0.06,0.12,0.00
2024-12-25 19:24:29,790,794,792,792,776,-1.04,0.50,10.09,-0.27,-0.27,-0.08
2024-12-25 19:24:29,792,788,789,787,773,-0.76,-0.17,10.46,-0.14,0.22,-0.16
2024-12-25 19:24:29,785,781,781,779,774,-1.34,1.52,10.12,0.96,0.49,0.13
2024-12-25 19:24:29,784,777,778,776,774,-1.78,1.79,9.33,0.19,0.32,0.14
2024-12-25 19:24:29,782,775,777,776,773,-2.50,2.83,9.90,0.11,0.35,0.10
2024-12-25 19:24:29,783,775,778,776,771,-2.58,2.87,9.71,0.10,0.14,-0.03
2024-12-25 19:24:29,781,775,785,783,772,-2.07,2.95,9.67,-0.22,-0.10,-0.14
2024-12-25 19:24:29,783,774,780,778,769,-2.37,2.91,9.98,0.03,-0.13,-0.08
2024-12-25 19:24:29,786,772,777,774,764,-2.24,2.68,9.88,-0.32,0.16,0.05
2024-12-25 19:24:29,788,785,794,790,766,-2.34,1.63,10.07,-0.75,-0.14,-0.04
2024-12-25 19:24:29,792,788,793,790,765,-2.27,1.36,10.61,0.04,0.11,-0.05
2024-12-25 19:24:29,794,792,793,790,769,-2.30,1.35,10.28,0.00,0.06,-0.02
2024-12-25 19:24:29,794,794,796,792,769,-2.46,1.60,10.04,0.06,0.03,-0.04
2024-12-25 19:24:29,791,793,795,792,768,-2.20,1.61,10.09,-0.05,0.08,-0.08
2024-12-25 19:24:29,792,791,796,794,767,-2.77,1.74,10.01,0.28,-0.15,0.06
2024-12-25 19:24:29,791,788,791,789,765,-2.10,2.50,9.84,0.02,0.02,0.02
2024-12-25 19:24:29,791,786,789,788,769,-2.11,2.53,10.16,-0.04,0.18,-0.08
2024-12-25 19:24:29,791,784,792,790,768,-2.63,2.38,9.86,0.00,-0.08,0.01
2024-12-25 19:24:29,793,788,794,792,769,-2.08,2.41,9.94,-0.15,0.11,-0.09
2024-12-25 19:24:29,789,787,793,793,770,-2.81,2.49,9.91,-0.44,-0.25,-0.13
2024-12-25 19:24:29,794,788,794,792,770,-0.64,1.81,10.48,-0.13,-0.62,-0.08
2024-12-25 19:24:29,792,789,793,791,768,-1.24,1.34,10.28,-0.19,0.00,0.01
2024-12-25 19:24:29,793,790,792,791,769,-1.20,0.95,10.41,-0.06,0.11,0.11
2024-12-25 19:24:29,792,787,795,792,769,-2.55,0.75,10.68,-0.36,0.17,-0.01
2024-12-25 19:24:29,789,785,790,787,768,-1.36,0.40,10.64,0.00,0.27,0.04
2024-12-25 19:24:29,783,781,783,779,768,-0.93,2.34,8.78,0.33,-0.19,0.23
2024-12-25 19:24:29,780,776,779,776,768,-2.32,2.42,10.84,0.11,-0.07,-0.07
2024-12-25 19:24:29,775,775,777,777,767,-2.15,2.25,9.74,-0.17,0.19,-0.10
2024-12-25 19:24:29,770,776,778,777,768,-2.18,1.86,10.34,-0.09,0.07,-0.11
2024-12-25 19:24:29,768,776,781,777,768,-2.39,1.69,10.28,-0.30,0.01,-0.00
2024-12-25 19:24:29,768,775,780,778,768,-2.34,0.99,10.33,-0.52,0.02,-0.03
2024-12-25 19:24:30,769,780,785,783,766,-2.67,-0.48,10.94,-0.96,-0.23,-0.07
2024-12-25 19:24:30,809,787,791,790,766,-0.70,-1.54,10.79,-1.32,-0.18,0.34
2024-12-25 19:24:30,830,816,839,836,773,-1.23,-3.39,10.04,-1.44,-0.46,0.66
2024-12-25 19:24:30,853,882,888,884,820,-1.44,-5.33,8.06,-1.23,-0.23,0.69
2024-12-25 19:24:30,882,905,906,900,827,-1.88,-5.91,7.89,-1.43,-0.10,0.72
2024-12-25 19:24:30,904,910,912,908,845,-3.16,-8.06,2.75,-1.92,0.19,0.13
2024-12-25 19:24:31,900,905,914,912,852,-3.36,-8.38,0.39,-0.77,0.21,0.21
2024-12-25 19:24:31,889,906,914,910,854,-3.39,-9.35,-0.05,-0.66,0.52,-0.18
2024-12-25 19:24:31,908,905,915,909,852,-2.36,-8.97,-0.74,0.08,0.09,-0.04
2024-12-25 19:24:31,891,905,912,909,854,-2.89,-9.29,-0.58,-0.05,0.00,-0.03
2024-12-25 19:24:31,898,905,912,910,857,-2.93,-9.28,-0.71,-0.00,0.03,-0.02
2024-12-25 19:24:32,887,903,910,907,858,-2.76,-9.36,-0.73,-0.06,0.03,-0.01
2024-12-25 19:24:32,893,903,907,906,858,-2.90,-9.27,-0.67,-0.02,0.04,0.02
2024-12-25 19:24:32,895,901,908,906,862,-3.03,-9.17,-0.81,-0.03,0.02,0.01
2024-12-25 19:24:32,885,900,908,904,859,-2.89,-9.16,-0.75,-0.04,0.02,-0.03
2024-12-25 19:24:32,906,902,908,905,859,-3.07,-9.21,-0.68,-0.03,0.01,-0.02
2024-12-25 19:24:33,880,900,906,904,858,-2.66,-9.23,-0.55,-0.02,0.07,-0.03
2024-12-25 19:24:33,900,899,908,904,857,-2.99,-9.14,-1.00,-0.09,-0.11,-0.13
2024-12-25 19:24:33,883,897,908,900,857,-2.91,-9.31,-0.65,0.06,-0.01,0.02
2024-12-25 19:24:33,898,897,908,905,857,-2.84,-9.32,-0.42,0.00,0.01,-0.02
2024-12-25 19:24:33,881,897,907,902,855,-2.80,-9.26,-0.47,-0.02,0.01,-0.01
2024-12-25 19:24:33,885,896,905,902,856,-2.90,-9.34,-0.43,-0.02,0.02,-0.04
2024-12-25 19:24:34,878,895,905,902,855,-2.83,-9.39,-0.45,0.01,0.03,-0.02
2024-12-25 19:24:34,885,894,903,902,856,-2.84,-9.30,-0.41,-0.08,0.02,-0.04
2024-12-25 19:24:34,889,892,905,901,854,-2.61,-9.51,-0.62,0.01,0.04,-0.05
2024-12-25 19:24:34,880,895,904,900,854,-2.76,-9.35,-0.43,-0.00,0.00,-0.00
2024-12-25 19:24:34,898,893,908,902,856,-2.74,-9.36,-0.37,0.00,0.05,-0.01
2024-12-25 19:24:35,874,893,904,902,853,-2.77,-9.39,-0.13,-0.06,0.03,-0.01
2024-12-25 19:24:35,886,893,903,903,854,-2.68,-9.39,-0.17,-0.02,0.02,-0.01
2024-12-25 19:24:35,876,892,904,902,855,-2.73,-9.33,-0.41,-0.03,0.06,-0.01
2024-12-25 19:24:35,886,895,904,898,853,-2.77,-9.36,-0.33,-0.06,0.04,-0.02
2024-12-25 19:24:35,876,893,901,899,852,-2.74,-9.29,-0.35,-0.06,0.00,-0.00
2024-12-25 19:24:36,883,894,903,900,852,-2.74,-9.34,-0.25,-0.05,0.01,-0.01
2024-12-25 19:24:36,879,893,900,899,853,-2.72,-9.34,-0.31,-0.03,0.02,0.00
2024-12-25 19:24:36,880,891,903,898,853,-2.75,-9.39,-0.31,-0.04,0.01,-0.02
2024-12-25 19:24:36,885,893,902,902,854,-2.67,-9.31,-0.49,-0.02,0.03,-0.03
2024-12-25 19:24:36,879,891,902,900,853,-2.78,-9.43,-0.28,-0.06,0.04,-0.03
2024-12-25 19:24:37,891,894,901,899,853,-2.74,-9.35,-0.37,-0.01,0.02,-0.01
2024-12-25 19:24:37,875,894,901,899,851,-2.64,-9.37,-0.41,-0.06,0.03,-0.02
2024-12-25 19:24:37,894,890,902,899,854,-2.80,-9.35,-0.28,-0.05,-0.01,-0.02
2024-12-25 19:24:37,877,890,902,900,852,-2.67,-9.46,-0.32,-0.02,0.02,0.01
2024-12-25 19:24:37,893,892,903,899,852,-2.72,-9.33,-0.31,-0.06,0.02,-0.01
2024-12-25 19:24:37,864,892,901,901,852,-2.83,-9.37,-0.28,-0.07,0.04,0.02
2024-12-25 19:24:38,886,892,899,899,851,-2.89,-9.40,-0.32,-0.03,0.05,0.01
2024-12-25 19:24:38,882,892,901,901,852,-2.66,-9.31,-0.31,-0.05,0.04,0.01
2024-12-25 19:24:38,876,893,904,899,851,-2.74,-9.31,-0.34,-0.07,0.02,-0.03
2024-12-25 19:24:38,894,891,900,899,851,-2.68,-9.39,-0.29,-0.02,0.01,-0.01
2024-12-25 19:24:38,874,889,902,899,852,-2.79,-9.38,-0.19,-0.02,0.04,0.01
2024-12-25 19:24:39,883,890,902,898,851,-2.72,-9.44,-0.29,-0.02,0.03,-0.02
2024-12-25 19:24:39,871,891,902,898,852,-2.72,-9.31,-0.34,-0.06,0.02,-0.02
2024-12-25 19:24:39,883,889,900,900,852,-2.67,-9.39,-0.26,-0.05,0.04,0.00
2024-12-25 19:24:39,875,889,901,898,852,-2.72,-9.34,-0.41,-0.06,0.01,0.01
2024-12-25 19:24:39,876,889,899,898,852,-2.71,-9.30,-0.54,-0.07,0.01,-0.02
2024-12-25 19:24:40,885,887,899,898,852,-2.77,-9.32,-0.44,-0.08,-0.00,-0.02
2024-12-25 19:24:40,880,888,901,898,850,-2.79,-9.22,-0.47,-0.01,0.00,-0.01
2024-12-25 19:24:40,881,889,899,898,853,-2.75,-9.31,-0.43,-0.07,0.02,-0.04
2024-12-25 19:24:40,878,889,900,897,851,-2.76,-9.26,-0.55,-0.06,0.00,-0.01
2024-12-25 19:24:40,880,889,903,898,851,-2.88,-9.39,-0.41,-0.07,0.04,-0.05
2024-12-25 19:24:40,875,888,900,897,851,-2.82,-9.26,-0.46,-0.05,0.00,-0.05
2024-12-25 19:24:41,890,889,901,897,851,-2.53,-9.50,-0.37,-0.03,0.04,0.00
2024-12-25 19:24:41,866,887,901,897,852,-2.80,-9.36,-0.51,-0.05,-0.00,-0.05
2024-12-25 19:24:41,889,890,901,895,849,-2.52,-9.48,-0.55,-0.02,0.04,-0.00
2024-12-25 19:24:41,868,891,900,898,849,-2.67,-9.24,-0.63,-0.03,0.03,-0.02
2024-12-25 19:24:41,888,888,901,897,851,-2.59,-9.38,-0.56,-0.03,0.03,0.00
2024-12-25 19:24:42,869,891,899,895,850,-2.52,-9.47,-0.40,-0.00,-0.00,-0.01
2024-12-25 19:24:42,883,888,902,895,852,-2.57,-9.34,-0.46,-0.04,-0.00,0.02
2024-12-25 19:24:42,867,892,899,899,852,-2.73,-9.39,-0.36,-0.05,0.05,-0.03
2024-12-25 19:24:42,879,890,901,896,852,-2.56,-9.33,-0.50,-0.03,0.08,-0.03
2024-12-25 19:24:42,870,889,900,897,849,-2.68,-9.39,-0.62,-0.06,0.03,-0.04
2024-12-25 19:24:43,878,887,899,896,849,-2.64,-9.38,-0.40,-0.10,-0.00,-0.02
2024-12-25 19:24:43,868,889,900,894,851,-2.58,-9.37,-0.51,-0.05,0.03,-0.00
2024-12-25 19:24:43,879,887,898,897,851,-2.70,-9.33,-0.61,-0.02,-0.01,-0.02
2024-12-25 19:24:43,865,888,902,899,850,-2.66,-9.35,-0.61,0.00,-0.00,-0.01
2024-12-25 19:24:43,886,890,901,896,850,-2.67,-9.46,-0.34,-0.05,-0.01,-0.05
2024-12-25 19:24:44,873,889,901,899,849,-2.82,-9.21,-0.30,-0.02,0.08,-0.02
2024-12-25 19:24:44,887,889,899,895,850,-2.42,-9.59,-0.16,-0.00,-0.02,-0.06
2024-12-25 19:24:44,876,887,898,897,851,-2.44,-9.37,-0.37,-0.01,0.01,-0.03
2024-12-25 19:24:44,882,893,900,895,849,-2.64,-9.44,-0.19,-0.02,0.03,-0.02
2024-12-25 19:24:44,876,888,900,894,851,-2.60,-9.35,-0.02,-0.05,0.01,0.01
2024-12-25 19:24:44,882,887,901,896,850,-2.29,-9.63,-0.59,0.06,0.02,-0.03
2024-12-25 19:24:45,867,886,900,895,850,-2.37,-9.49,0.30,0.01,0.10,-0.03
2024-12-25 19:24:45,874,888,902,894,849,-2.60,-9.59,0.44,-0.05,0.02,0.10
2024-12-25 19:24:45,877,887,899,897,850,-2.89,-9.18,-0.03,-0.11,0.06,-0.01
2024-12-25 19:24:45,869,887,901,893,850,-2.73,-9.45,0.45,0.03,0.08,0.08
2024-12-25 19:24:45,862,888,898,896,850,-2.62,-9.53,-0.02,-0.02,0.05,-0.05
2024-12-25 19:24:46,886,889,901,897,850,-2.76,-9.54,-0.01,-0.14,0.12,0.08
2024-12-25 19:24:46,870,887,900,896,848,-2.85,-9.08,-0.50,-0.15,0.12,0.09
2024-12-25 19:24:46,874,888,900,896,848,-3.16,-9.18,-0.38,-0.07,0.14,0.19
2024-12-25 19:24:46,884,888,899,898,850,-3.36,-9.11,-0.76,-0.10,0.06,0.13
2024-12-25 19:24:46,859,886,898,896,849,-3.47,-8.83,-0.62,-0.09,0.02,0.03
2024-12-25 19:24:47,876,887,899,896,849,-3.76,-8.90,-0.74,-0.02,-0.04,0.03
2024-12-25 19:24:47,867,887,897,897,848,-3.80,-8.89,-0.72,-0.03,-0.06,-0.04
2024-12-25 19:24:47,881,886,899,895,850,-3.73,-8.95,-0.56,-0.09,0.04,-0.01
2024-12-25 19:24:47,869,887,899,895,848,-3.60,-8.88,-0.62,-0.02,-0.05,-0.05
2024-12-25 19:24:47,881,887,898,895,850,-3.58,-9.15,-0.43,-0.06,0.01,-0.03
2024-12-25 19:24:48,868,887,899,893,848,-3.64,-8.92,-0.72,0.03,0.10,0.11
2024-12-25 19:24:48,874,886,900,897,850,-3.76,-8.79,-0.79,-0.02,0.03,-0.03
2024-12-25 19:24:48,873,885,900,894,849,-3.81,-8.90,-0.61,-0.06,-0.04,-0.02
2024-12-25 19:24:48,876,886,899,895,848,-3.79,-8.96,-0.33,-0.03,-0.01,-0.01
2024-12-25 19:24:48,867,887,898,894,847,-3.74,-8.98,-0.57,-0.05,0.06,0.00
2024-12-25 19:24:48,872,887,899,896,850,-3.71,-8.99,-0.68,-0.01,0.01,-0.06
2024-12-25 19:24:49,875,888,898,895,850,-3.82,-8.77,-0.80,-0.03,0.01,0.01
2024-12-25 19:24:49,873,887,900,894,848,-3.68,-8.97,-0.59,-0.00,-0.01,-0.05
2024-12-25 19:24:49,874,886,898,898,848,-3.62,-9.03,-0.25,0.05,0.03,-0.04
2024-12-25 19:24:49,871,886,898,896,849,-3.53,-9.17,-0.34,0.06,0.01,-0.03
2024-12-25 19:24:49,879,887,896,898,849,-3.68,-8.96,-0.29,-0.02,-0.02,-0.06
2024-12-25 19:24:50,859,886,899,896,849,-3.81,-9.16,0.07,-0.01,0.04,-0.05
2024-12-25 19:24:50,878,889,897,894,849,-3.56,-9.01,-0.10,-0.03,0.07,0.00
2024-12-25 19:24:50,873,887,897,894,850,-3.55,-9.11,-0.03,-0.05,0.06,-0.03
2024-12-25 19:24:50,871,888,899,895,848,-3.33,-8.98,-0.16,-0.04,0.04,-0.02
2024-12-25 19:24:50,875,888,898,897,848,-3.53,-9.15,0.00,-0.02,0.01,-0.05
2024-12-25 19:24:51,870,885,900,892,849,-3.50,-9.05,-0.09,-0.09,0.00,-0.03
2024-12-25 19:24:51,890,885,898,895,850,-3.39,-9.13,-0.12,-0.03,0.02,-0.01
2024-12-25 19:24:51,865,888,898,895,848,-3.42,-9.12,-0.20,-0.01,0.05,-0.02
2024-12-25 19:24:51,886,887,900,898,848,-3.33,-9.22,-0.01,-0.02,0.03,-0.07
2024-12-25 19:24:51,859,887,897,897,846,-3.28,-9.14,-0.05,-0.04,0.06,0.01
2024-12-25 19:24:51,874,888,898,894,847,-3.44,-9.04,-0.08,-0.04,0.08,0.03
2024-12-25 19:24:52,873,887,900,893,848,-3.40,-9.10,-0.18,-0.05,0.08,0.01
2024-12-25 19:24:52,871,887,898,893,848,-3.47,-9.04,-0.13,-0.02,0.07,-0.07
2024-12-25 19:24:52,887,887,897,896,848,-3.31,-9.26,-0.02,0.01,0.10,0.02
2024-12-25 19:24:52,867,886,898,894,848,-3.38,-9.06,-0.17,-0.10,0.09,-0.00
2024-12-25 19:24:52,874,883,898,894,848,-3.32,-9.17,-0.27,-0.03,0.08,0.02
2024-12-25 19:24:53,878,886,900,894,848,-3.42,-9.01,-0.47,-0.09,0.04,0.04
2024-12-25 19:24:53,867,887,899,894,847,-3.56,-9.10,-0.32,-0.04,0.03,0.02
2024-12-25 19:24:53,877,886,898,892,848,-3.49,-9.00,-0.54,-0.06,0.02,-0.01
2024-12-25 19:24:53,864,886,899,895,848,-3.68,-9.05,-0.35,-0.05,0.02,-0.03
2024-12-25 19:24:53,876,886,898,894,847,-3.54,-9.07,-0.49,-0.01,0.04,-0.01
2024-12-25 19:24:54,865,887,898,894,848,-3.40,-9.03,-0.60,-0.03,0.02,-0.01
2024-12-25 19:24:54,875,886,896,892,846,-3.36,-9.09,-0.31,-0.01,-0.01,-0.06
2024-12-25 19:24:54,864,885,899,892,845,-3.63,-8.99,-0.29,-0.09,-0.08,-0.02
2024-12-25 19:24:54,875,885,897,894,848,-4.28,-8.68,-1.02,-0.03,0.12,0.01
2024-12-25 19:24:54,865,886,897,894,847,-3.60,-9.16,-0.25,-0.07,0.01,-0.03
2024-12-25 19:24:55,875,885,895,896,846,-3.50,-9.18,-0.26,-0.03,0.04,0.00
2024-12-25 19:24:55,870,883,899,895,848,-3.78,-8.88,-0.59,-0.00,0.05,0.03
2024-12-25 19:24:55,869,886,898,897,849,-3.77,-8.69,-0.17,-0.05,0.06,-0.10
2024-12-25 19:24:55,880,884,898,892,847,-3.25,-9.21,-0.27,0.09,0.20,-0.25
2024-12-25 19:24:55,856,886,900,892,845,-2.80,-9.33,-0.17,-0.04,0.06,-0.04
2024-12-25 19:24:55,876,887,898,894,846,-2.84,-9.41,-0.01,-0.02,0.12,0.02
2024-12-25 19:24:56,865,885,897,895,845,-2.64,-9.28,0.14,0.04,0.02,0.06
2024-12-25 19:24:56,854,883,897,896,846,-3.25,-9.39,0.28,-0.08,-0.00,-0.04
2024-12-25 19:24:56,875,886,898,896,847,-3.54,-9.21,0.22,0.03,0.04,0.10
2024-12-25 19:24:56,878,886,899,895,847,-2.51,-9.22,-0.27,-0.03,0.05,0.10
2024-12-25 19:24:56,850,888,899,892,847,-3.16,-9.33,0.31,-0.19,-0.10,-0.07
2024-12-25 19:24:57,880,887,895,895,845,-3.49,-9.17,0.10,-0.08,-0.02,-0.01
2024-12-25 19:24:57,861,885,896,892,845,-3.43,-8.96,-0.51,-0.03,-0.06,0.00
2024-12-25 19:24:57,874,886,897,893,847,-3.43,-9.18,-0.07,0.00,0.06,-0.06
2024-12-25 19:24:57,864,886,897,894,846,-3.29,-9.05,0.08,0.02,0.14,-0.03
2024-12-25 19:24:57,871,886,898,894,847,-3.17,-9.23,0.04,0.04,-0.07,0.04
2024-12-25 19:24:58,874,885,897,893,847,-3.22,-9.21,0.23,0.07,0.12,-0.12
2024-12-25 19:24:58,878,885,896,895,846,-2.76,-9.55,0.55,0.02,0.11,-0.03
2024-12-25 19:24:58,863,886,898,894,845,-3.12,-9.34,0.46,0.08,0.11,0.01
2024-12-25 19:24:58,867,884,895,892,846,-3.09,-9.10,0.69,0.02,0.02,0.09
2024-12-25 19:24:58,872,884,898,895,847,-3.14,-9.04,0.62,0.09,-0.02,0.06
2024-12-25 19:24:58,882,887,897,895,846,-3.80,-9.09,1.15,-0.09,-0.12,-0.01
2024-12-25 19:24:59,856,885,894,891,845,-3.54,-9.10,1.28,0.09,0.04,0.08
2024-12-25 19:24:59,868,884,899,892,845,-3.62,-9.02,0.81,-0.01,0.02,-0.05
2024-12-25 19:24:59,885,884,897,891,846,-3.57,-8.81,1.30,-0.04,0.02,-0.06
2024-12-25 19:24:59,863,884,898,893,847,-3.56,-9.14,1.30,-0.05,-0.06,-0.11
2024-12-25 19:24:59,873,884,896,893,847,-3.41,-9.28,1.23,-0.01,0.02,-0.02
2024-12-25 19:25:00,872,887,893,894,847,-3.19,-9.03,1.48,0.06,0.02,-0.00
2024-12-25 19:25:00,855,885,896,893,847,-3.39,-8.79,2.17,-0.08,-0.02,-0.09
2024-12-25 19:25:00,882,886,896,892,846,-2.99,-9.39,1.93,-0.16,-0.14,-0.07
2024-12-25 19:25:00,858,885,895,895,847,-3.39,-9.19,1.50,-0.09,-0.03,0.05
2024-12-25 19:25:00,871,885,896,895,844,-3.56,-9.29,1.21,-0.13,0.01,0.07
2024-12-25 19:25:00,876,885,897,894,847,-3.49,-8.82,0.88,-0.10,0.08,0.07
2024-12-25 19:25:01,864,885,896,890,846,-3.46,-8.90,1.46,-0.11,0.01,0.01
2024-12-25 19:25:01,869,886,895,893,845,-3.42,-8.29,1.11,-0.02,0.12,0.05
2024-12-25 19:25:01,873,884,897,892,845,-4.59,-9.55,0.99,-0.14,0.50,-0.02
2024-12-25 19:25:01,862,886,897,891,846,-3.63,-8.32,-0.22,-0.13,0.10,0.18
2024-12-25 19:25:01,866,884,898,894,845,-3.99,-8.95,-0.07,-0.07,0.00,-0.05
2024-12-25 19:25:02,872,884,896,893,847,-4.48,-8.90,0.32,-0.05,-0.09,0.12
2024-12-25 19:25:02,867,886,897,895,847,-4.72,-8.39,0.54,-0.09,0.00,0.05
2024-12-25 19:25:02,869,884,895,892,847,-4.48,-8.75,0.32,-0.10,0.15,-0.04
2024-12-25 19:25:02,872,886,895,891,846,-4.20,-8.77,-0.24,-0.02,0.05,-0.12
2024-12-25 19:25:02,870,886,898,894,848,-4.35,-8.75,-0.03,-0.01,0.02,0.04
2024-12-25 19:25:03,882,885,898,892,847,-4.26,-8.66,-0.31,0.02,0.00,0.01
2024-12-25 19:25:03,861,885,895,893,846,-4.08,-8.62,0.42,-0.12,0.03,0.07
2024-12-25 19:25:03,870,883,897,891,844,-4.46,-8.58,0.24,-0.03,0.00,0.00
2024-12-25 19:25:03,870,884,895,893,845,-4.54,-8.77,0.02,-0.01,0.02,0.07
2024-12-25 19:25:03,880,884,894,895,844,-4.64,-8.51,0.18,-0.11,0.04,0.05
2024-12-25 19:25:03,861,882,894,894,846,-4.89,-8.51,0.08,-0.10,0.05,-0.08
2024-12-25 19:25:04,867,882,894,893,847,-4.56,-8.54,-0.22,0.01,0.07,0.08
2024-12-25 19:25:04,886,884,895,892,847,-4.50,-8.42,-0.27,-0.10,0.11,-0.02
2024-12-25 19:25:04,856,884,897,892,847,-4.64,-8.70,-0.35,-0.01,-0.02,-0.08
2024-12-25 19:25:04,881,884,899,892,846,-4.60,-8.32,-0.07,-0.03,0.04,0.07
2024-12-25 19:25:04,858,886,898,892,847,-4.54,-8.65,-0.20,-0.01,-0.08,-0.01
2024-12-25 19:25:05,883,883,895,890,846,-4.82,-8.30,0.00,-0.02,0.00,-0.02
2024-12-25 19:25:05,863,885,898,892,847,-4.82,-8.60,0.11,-0.03,-0.01,0.03
2024-12-25 19:25:05,870,885,896,892,846,-4.81,-8.45,-0.02,-0.02,0.03,-0.03
2024-12-25 19:25:05,860,885,896,892,846,-4.84,-8.34,0.11,-0.00,-0.01,0.05
2024-12-25 19:25:05,867,884,896,894,845,-4.78,-8.35,0.25,-0.04,0.04,0.02
2024-12-25 19:25:06,873,884,896,893,846,-4.96,-8.31,0.06,-0.01,-0.00,-0.02
2024-12-25 19:25:06,861,883,895,893,847,-4.93,-8.37,0.08,-0.06,0.03,-0.03
2024-12-25 19:25:06,869,884,894,895,847,-4.80,-8.35,0.16,-0.04,0.05,-0.03
2024-12-25 19:25:06,873,883,894,891,845,-4.91,-8.41,0.14,-0.05,0.03,-0.01
2024-12-25 19:25:06,866,883,899,894,845,-4.84,-8.29,0.05,-0.06,0.03,-0.01
2024-12-25 19:25:06,874,884,893,893,846,-4.81,-8.39,0.04,-0.06,0.05,-0.02
2024-12-25 19:25:07,857,884,897,893,847,-4.87,-8.42,-0.03,-0.02,0.05,-0.00
2024-12-25 19:25:07,867,884,896,894,846,-4.95,-8.27,-0.06,-0.07,0.03,-0.04
2024-12-25 19:25:07,869,883,897,892,845,-4.82,-8.32,0.33,-0.09,0.10,-0.01
2024-12-25 19:25:07,867,883,897,893,845,-4.96,-8.34,-0.11,0.01,0.20,-0.02
2024-12-25 19:25:07,883,882,898,893,845,-4.66,-8.45,-0.33,0.07,0.14,-0.10
2024-12-25 19:25:08,863,884,895,894,846,-4.58,-8.74,-0.40,0.06,0.16,0.12
2024-12-25 19:25:08,868,884,894,894,846,-4.86,-7.90,-0.67,-0.11,0.06,0.13
2024-12-25 19:25:08,884,883,895,894,845,-4.92,-8.38,-0.18,0.09,-0.03,-0.00
2024-12-25 19:25:08,860,885,894,893,847,-4.95,-8.19,-0.38,-0.11,0.07,0.03
2024-12-25 19:25:08,874,884,896,893,846,-5.09,-8.22,-0.34,-0.07,0.09,0.02
2024-12-25 19:25:09,863,883,895,890,846,-4.89,-8.03,-0.90,-0.06,-0.07,-0.04
2024-12-25 19:25:09,870,884,895,891,845,-5.19,-8.35,-0.17,-0.07,-0.21,-0.13
2024-12-25 19:25:09,860,883,894,891,846,-4.93,-8.24,0.12,-0.03,0.02,-0.10
2024-12-25 19:25:09,870,883,895,892,845,-4.74,-8.50,0.07,0.04,0.04,0.11
2024-12-25 19:25:09,881,882,897,892,845,-5.13,-8.08,-0.24,-0.04,-0.02,-0.04
2024-12-25 19:25:10,869,882,894,895,845,-4.77,-8.52,0.29,0.01,0.02,-0.03
2024-12-25 19:25:10,873,881,894,891,844,-4.94,-8.31,0.16,-0.04,0.05,-0.05
2024-12-25 19:25:10,871,884,894,892,845,-4.94,-8.60,0.25,0.08,0.03,0.02
2024-12-25 19:25:10,861,883,897,891,846,-4.65,-8.46,0.45,-0.08,-0.04,-0.02
2024-12-25 19:25:10,872,881,895,891,846,-4.87,-8.33,0.29,-0.02,-0.03,-0.05
2024-12-25 19:25:10,860,882,895,891,846,-4.66,-8.66,0.34,0.06,0.03,0.03
2024-12-25 19:25:11,867,882,894,893,847,-4.95,-8.43,0.57,-0.05,0.05,0.02
2024-12-25 19:25:11,868,883,894,893,846,-4.97,-8.68,0.45,-0.13,0.07,-0.01
2024-12-25 19:25:11,869,884,894,890,845,-4.94,-8.10,0.17,0.05,0.02,-0.01
2024-12-25 19:25:11,859,883,894,890,846,-5.11,-8.35,0.73,-0.10,0.02,-0.04
2024-12-25 19:25:11,869,882,895,891,845,-4.70,-8.47,0.39,0.11,0.14,0.03
2024-12-25 19:25:12,878,882,894,891,845,-4.98,-8.25,0.17,-0.08,-0.01,-0.02
2024-12-25 19:25:12,851,883,896,891,846,-5.07,-8.36,0.68,0.00,-0.03,0.05
2024-12-25 19:25:12,865,884,894,891,846,-4.93,-8.10,0.34,-0.05,-0.07,-0.10
2024-12-25 19:25:12,867,881,896,893,846,-5.01,-8.71,0.74,-0.09,0.10,-0.10
2024-12-25 19:25:12,867,882,894,894,845,-4.15,-8.30,0.39,-0.08,0.09,0.13
2024-12-25 19:25:13,870,884,896,891,844,-5.27,-8.01,0.08,-0.09,-0.06,-0.04
2024-12-25 19:25:13,860,882,893,893,844,-5.07,-8.20,0.46,-0.01,0.03,0.00
2024-12-25 19:25:13,869,881,895,893,845,-4.92,-8.50,0.27,0.02,0.03,0.00
2024-12-25 19:25:13,869,883,894,892,845,-5.14,-8.24,0.27,0.01,0.01,0.02
2024-12-25 19:25:13,872,885,893,890,844,-5.35,-8.24,0.48,-0.04,-0.01,0.01
2024-12-25 19:25:13,859,884,895,894,846,-5.30,-8.05,0.71,-0.07,0.02,-0.01
2024-12-25 19:25:14,867,883,893,890,846,-5.13,-8.18,0.43,-0.03,0.09,0.02
2024-12-25 19:25:14,881,884,898,892,845,-4.94,-8.36,0.15,-0.06,0.03,-0.06
2024-12-25 19:25:14,859,883,895,891,844,-5.24,-8.10,0.31,-0.09,0.04,0.01
2024-12-25 19:25:14,868,884,894,891,845,-5.24,-8.27,0.12,-0.00,0.03,0.06
2024-12-25 19:25:14,872,882,895,890,845,-5.38,-7.86,0.38,-0.03,0.04,0.03
2024-12-25 19:25:15,869,885,894,893,844,-5.28,-7.99,0.14,-0.08,-0.04,-0.10
2024-12-25 19:25:15,864,881,894,890,845,-5.39,-8.15,0.39,0.02,-0.01,-0.06
2024-12-25 19:25:15,881,882,893,889,844,-5.17,-8.08,0.26,-0.13,0.01,0.05
2024-12-25 19:25:15,859,883,895,891,845,-5.09,-8.04,-0.12,-0.00,0.06,0.02
2024-12-25 19:25:15,865,884,893,890,846,-5.26,-8.09,0.23,-0.07,0.01,-0.05
2024-12-25 19:25:15,878,882,893,891,845,-5.39,-8.08,0.22,0.02,0.04,0.00
2024-12-25 19:25:16,865,883,893,890,844,-5.20,-8.06,0.21,-0.10,0.02,-0.05
2024-12-25 19:25:16,869,882,894,893,844,-5.45,-8.09,0.34,-0.02,0.04,-0.03
2024-12-25 19:25:16,880,882,894,889,844,-5.20,-8.22,0.63,0.02,0.09,-0.05
2024-12-25 19:25:16,857,881,894,890,844,-5.27,-8.34,0.37,-0.06,0.05,-0.04
2024-12-25 19:25:16,868,883,897,891,845,-5.09,-8.02,0.24,0.04,0.10,0.04
2024-12-25 19:25:17,870,884,895,889,843,-5.20,-8.11,0.25,-0.04,0.01,0.00
2024-12-25 19:25:17,875,885,893,890,845,-5.25,-8.19,0.23,-0.00,-0.01,-0.03
2024-12-25 19:25:17,862,883,895,892,845,-5.30,-8.17,0.42,-0.01,0.01,-0.01
2024-12-25 19:25:17,872,882,895,893,847,-5.01,-7.95,0.47,-0.04,0.08,-0.07
2024-12-25 19:25:17,859,884,892,892,847,-5.36,-8.48,0.74,-0.04,0.16,0.04
2024-12-25 19:25:18,864,881,894,893,845,-4.79,-8.17,0.01,-0.02,0.10,0.03
2024-12-25 19:25:18,871,881,894,893,844,-5.18,-8.11,-0.09,-0.06,0.07,-0.06
2024-12-25 19:25:18,858,881,894,892,844,-5.05,-8.20,0.18,-0.01,0.08,0.05
2024-12-25 19:25:18,866,882,894,890,845,-5.10,-8.29,0.31,-0.02,0.04,-0.01
2024-12-25 19:25:18,883,881,895,890,844,-4.96,-8.15,-0.16,-0.08,-0.01,-0.01
2024-12-25 19:25:18,864,883,896,890,844,-5.10,-8.10,-0.16,-0.03,0.04,-0.01
2024-12-25 19:25:19,876,882,894,891,844,-5.09,-8.16,-0.08,-0.01,0.04,-0.04
2024-12-25 19:25:19,865,880,894,891,845,-5.00,-8.14,0.15,-0.06,0.02,-0.06
2024-12-25 19:25:19,876,883,894,891,844,-5.01,-8.37,0.08,0.01,0.03,-0.06
2024-12-25 19:25:19,865,882,895,892,844,-4.89,-8.28,0.08,-0.03,0.02,0.02
2024-12-25 19:25:19,860,881,894,890,844,-5.17,-8.19,-0.00,-0.04,0.04,0.01
2024-12-25 19:25:20,871,881,894,890,845,-5.23,-8.21,0.17,-0.04,-0.02,-0.01
2024-12-25 19:25:20,860,881,894,892,846,-5.21,-8.20,0.03,-0.01,0.04,-0.03
2024-12-25 19:25:20,870,882,893,890,843,-5.13,-8.34,0.14,-0.05,0.04,-0.00
2024-12-25 19:25:20,871,883,894,892,846,-5.09,-8.06,-0.09,-0.07,0.03,0.00
2024-12-25 19:25:20,864,882,893,890,845,-5.12,-8.29,0.17,-0.01,-0.02,-0.04
2024-12-25 19:25:21,881,882,895,892,845,-4.98,-8.26,0.22,-0.04,0.03,0.01
2024-12-25 19:25:21,859,883,896,890,846,-5.07,-8.15,0.21,-0.05,-0.01,-0.02
2024-12-25 19:25:21,869,883,894,888,844,-4.99,-8.20,0.15,-0.05,-0.02,-0.03
2024-12-25 19:25:21,862,882,893,892,845,-5.05,-8.15,0.22,-0.05,-0.06,-0.03
2024-12-25 19:25:21,865,884,893,890,845,-5.09,-8.32,0.55,-0.04,-0.00,-0.12
2024-12-25 19:25:21,866,882,892,893,844,-4.78,-8.64,0.40,-0.01,0.12,0.08
2024-12-25 19:25:22,851,882,894,891,846,-4.59,-8.33,-0.10,0.00,0.01,-0.04
2024-12-25 19:25:22,870,882,896,892,844,-4.97,-8.42,0.37,-0.02,0.01,-0.03
2024-12-25 19:25:22,864,880,895,889,842,-5.11,-8.40,0.54,-0.04,0.02,-0.02
2024-12-25 19:25:22,865,881,895,893,843,-4.75,-8.32,0.39,-0.03,0.05,-0.03
2024-12-25 19:25:22,880,883,894,889,843,-4.81,-8.60,0.46,-0.01,0.08,-0.03
2024-12-25 19:25:23,858,881,894,892,843,-4.63,-8.44,0.29,-0.07,-0.01,-0.03
2024-12-25 19:25:23,872,884,894,892,846,-4.82,-8.33,0.49,-0.10,-0.00,-0.01
2024-12-25 19:25:23,861,881,894,889,845,-4.99,-8.39,0.41,0.01,0.01,-0.04
2024-12-25 19:25:23,865,881,893,892,843,-4.56,-8.55,0.16,0.04,0.10,-0.03
2024-12-25 19:25:23,871,882,893,891,845,-4.57,-8.54,0.54,-0.07,0.04,-0.05
2024-12-25 19:25:24,858,882,893,891,846,-4.63,-8.69,0.17,-0.07,0.00,-0.02
2024-12-25 19:25:24,865,881,893,890,846,-4.49,-8.23,0.30,-0.01,0.02,-0.04
2024-12-25 19:25:24,882,882,894,891,845,-4.91,-8.51,0.17,-0.02,0.02,-0.04
2024-12-25 19:25:24,858,882,892,891,844,-4.64,-8.53,0.46,-0.06,-0.03,-0.02
2024-12-25 19:25:24,869,883,892,890,844,-4.60,-8.54,0.34,-0.06,0.04,-0.01
2024-12-25 19:25:24,858,881,893,890,845,-4.65,-8.48,0.20,-0.10,0.09,-0.02
2024-12-25 19:25:25,868,882,892,892,844,-4.63,-8.51,0.19,-0.05,0.03,0.02
2024-12-25 19:25:25,872,880,896,889,844,-4.72,-8.71,0.18,-0.09,0.04,-0.03
2024-12-25 19:25:25,861,884,895,891,844,-4.55,-8.41,-0.05,-0.16,0.13,-0.00
2024-12-25 19:25:25,871,882,893,892,846,-4.63,-8.48,-0.13,-0.05,0.08,-0.02
2024-12-25 19:25:25,859,882,894,887,844,-4.65,-8.48,-0.31,-0.02,0.10,0.03
2024-12-25 19:25:26,865,880,894,891,844,-4.55,-8.56,-0.27,-0.03,0.04,0.02
2024-12-25 19:25:26,879,879,892,889,842,-4.68,-8.33,-0.41,-0.03,0.02,-0.00
2024-12-25 19:25:26,862,880,894,891,843,-4.61,-8.44,-0.32,-0.01,-0.01,-0.03
2024-12-25 19:25:26,868,881,893,892,844,-4.62,-8.51,-0.22,-0.00,-0.03,-0.03
2024-12-25 19:25:26,865,884,893,890,843,-4.71,-8.46,-0.18,-0.01,0.00,-0.04
2024-12-25 19:25:27,868,881,893,891,845,-4.58,-8.58,0.09,-0.02,-0.01,-0.02
2024-12-25 19:25:27,866,882,892,890,845,-4.66,-8.57,0.13,0.02,0.04,-0.01
2024-12-25 19:25:27,878,881,891,891,844,-4.61,-8.54,0.04,-0.04,0.05,0.01
2024-12-25 19:25:27,861,882,891,890,843,-4.54,-8.40,0.02,-0.05,0.02,-0.06
2024-12-25 19:25:27,865,879,892,890,842,-4.67,-8.86,0.21,-0.23,0.01,-0.07
2024-12-25 19:25:28,881,880,891,890,843,-4.29,-8.50,-0.06,-0.03,0.01,0.01
2024-12-25 19:25:28,857,880,893,889,842,-4.64,-8.54,0.15,-0.06,0.05,-0.02
2024-12-25 19:25:28,868,882,893,891,843,-4.31,-8.56,-0.12,0.02,0.04,-0.05
2024-12-25 19:25:28,866,881,892,888,842,-4.51,-8.75,0.05,-0.08,0.01,-0.03
2024-12-25 19:25:28,858,882,891,888,843,-4.76,-8.76,0.05,0.00,0.01,0.16
2024-12-25 19:25:28,864,881,892,893,844,-4.31,-8.40,-0.31,-0.16,0.02,0.03
2024-12-25 19:25:29,881,881,893,889,842,-4.89,-8.32,-0.17,-0.10,-0.27,0.08
2024-12-25 19:25:29,862,881,895,890,844,-4.80,-8.15,0.19,0.28,-0.30,0.00
2024-12-25 19:25:29,867,881,891,888,845,-4.98,-8.51,0.58,-0.13,-0.36,0.02
2024-12-25 19:25:29,867,882,890,888,844,-5.51,-8.53,1.06,0.06,-0.17,-0.00
2024-12-25 19:25:29,863,881,894,889,843,-5.34,-8.16,0.94,0.11,-0.04,0.05
2024-12-25 19:25:30,869,880,893,888,844,-5.29,-7.84,1.63,-0.05,-0.08,0.07
2024-12-25 19:25:30,864,881,892,888,844,-5.22,-7.89,1.39,-0.13,-0.11,0.03
2024-12-25 19:25:30,865,882,893,890,840,-5.85,-8.27,1.80,-0.07,-0.01,0.15
2024-12-25 19:25:30,882,880,892,889,842,-5.53,-6.85,1.20,-0.00,-0.10,-0.01
2024-12-25 19:25:30,847,882,892,889,842,-6.27,-8.10,2.36,-0.07,0.08,0.10
2024-12-25 19:25:31,867,881,894,889,842,-5.82,-7.18,1.37,-0.16,-0.05,0.06
2024-12-25 19:25:31,871,882,892,888,843,-6.01,-6.93,1.03,-0.03,-0.08,0.12
2024-12-25 19:25:31,862,880,895,890,843,-6.93,-7.47,1.77,0.30,-0.08,0.22
2024-12-25 19:25:31,867,880,892,889,843,-6.07,-6.64,2.22,0.30,0.15,-0.07
2024-12-25 19:25:31,875,879,893,890,843,-5.49,-6.97,3.37,0.35,-0.06,-0.16
2024-12-25 19:25:31,846,881,894,890,843,-5.78,-7.59,4.08,0.16,-0.12,-0.22
2024-12-25 19:25:32,868,880,890,890,842,-5.01,-7.39,4.03,-0.08,-0.01,-0.11
2024-12-25 19:25:32,860,883,894,890,842,-5.48,-7.42,4.22,0.03,0.11,-0.10
2024-12-25 19:25:32,864,880,891,890,842,-5.47,-7.40,3.40,-0.08,0.08,-0.00
2024-12-25 19:25:32,882,881,893,892,843,-5.67,-7.59,3.47,-0.16,0.01,0.01
2024-12-25 19:25:32,858,880,892,889,843,-5.87,-7.55,3.35,-0.21,0.09,-0.01
2024-12-25 19:25:33,863,880,894,890,841,-5.36,-7.54,2.77,-0.00,0.09,0.07
2024-12-25 19:25:33,871,879,892,890,843,-5.35,-7.58,3.02,-0.01,0.14,-0.04
2024-12-25 19:25:33,857,879,892,889,844,-5.72,-7.55,2.82,-0.06,-0.00,-0.02
2024-12-25 19:25:33,867,881,894,890,843,-5.34,-7.58,2.99,0.05,0.01,-0.02
2024-12-25 19:25:33,877,880,894,889,844,-5.67,-7.63,3.28,-0.08,0.00,-0.02
2024-12-25 19:25:34,852,880,892,887,845,-5.67,-7.59,2.98,-0.05,0.14,0.01
2024-12-25 19:25:34,863,879,893,888,843,-5.50,-7.55,2.92,-0.09,0.08,-0.05
2024-12-25 19:25:34,870,880,895,890,844,-5.51,-7.58,2.85,-0.11,0.38,-0.13
2024-12-25 19:25:34,859,880,893,890,842,-5.86,-7.75,1.93,-0.11,0.21,0.02
2024-12-25 19:25:34,866,880,893,891,843,-5.57,-7.61,1.79,-0.05,0.11,-0.02
2024-12-25 19:25:34,869,879,894,890,842,-5.77,-7.63,1.70,-0.07,0.03,-0.03
2024-12-25 19:25:35,862,881,894,888,844,-5.60,-7.81,1.92,0.01,0.02,0.00
2024-12-25 19:25:35,866,879,893,890,842,-5.81,-7.76,1.81,-0.05,0.05,0.01
2024-12-25 19:25:35,881,879,891,890,843,-5.76,-7.67,1.70,-0.04,0.05,0.02
2024-12-25 19:25:35,856,881,892,889,844,-5.83,-7.60,1.68,-0.01,0.00,0.01
2024-12-25 19:25:35,864,882,894,889,844,-5.76,-7.60,1.88,-0.01,-0.04,-0.01
2024-12-25 19:25:36,877,880,895,888,843,-5.99,-7.44,2.10,0.01,-0.05,0.01
2024-12-25 19:25:36,856,881,893,890,844,-5.70,-7.65,2.09,-0.04,-0.05,-0.01
2024-12-25 19:25:36,866,881,892,889,842,-5.90,-7.67,2.11,-0.04,-0.02,-0.01
2024-12-25 19:25:36,856,880,893,890,843,-5.80,-7.41,2.01,-0.04,-0.05,-0.06
2024-12-25 19:25:36,865,882,893,889,843,-5.66,-7.70,2.66,0.01,-0.01,-0.02
2024-12-25 19:25:37,865,881,894,888,842,-5.69,-7.52,2.65,-0.07,-0.02,0.01
2024-12-25 19:25:37,861,882,892,892,841,-5.76,-7.54,2.54,-0.01,0.04,-0.02
2024-12-25 19:25:37,869,881,895,891,844,-5.68,-7.55,2.59,-0.02,-0.01,0.01
2024-12-25 19:25:37,858,879,893,884,843,-5.78,-7.50,2.67,-0.08,0.05,-0.01
2024-12-25 19:25:37,864,881,891,891,842,-5.71,-7.58,2.48,-0.02,0.07,-0.02
2024-12-25 19:25:37,879,881,890,890,841,-5.67,-7.58,2.50,-0.03,0.00,-0.00
2024-12-25 19:25:38,852,878,893,889,843,-5.69,-7.70,2.42,-0.05,-0.01,0.07
2024-12-25 19:25:38,868,879,893,890,843,-5.92,-7.23,2.45,-0.12,0.02,-0.08
2024-12-25 19:25:38,868,878,892,891,844,-5.86,-7.58,2.68,0.01,0.01,-0.03
2024-12-25 19:25:38,856,880,892,890,843,-5.45,-7.57,2.41,-0.01,0.04,-0.01
2024-12-25 19:25:38,869,880,893,890,844,-5.75,-7.57,2.45,-0.03,-0.04,-0.01
2024-12-25 19:25:39,857,878,891,887,844,-5.64,-7.66,2.86,-0.02,-0.12,-0.07
2024-12-25 19:25:39,868,878,894,889,842,-5.93,-7.45,2.53,-0.10,0.02,0.05
2024-12-25 19:25:39,868,878,894,888,843,-5.75,-7.41,2.67,-0.11,0.12,-0.02
2024-12-25 19:25:39,859,880,894,890,843,-5.71,-7.61,2.41,-0.18,0.36,-0.02
2024-12-25 19:25:39,868,880,892,890,843,-5.44,-7.58,1.63,-0.19,0.13,-0.10
2024-12-25 19:25:40,857,881,893,889,842,-5.74,-7.77,1.62,-0.01,0.10,0.04
2024-12-25 19:25:40,862,879,892,891,844,-6.05,-7.69,1.76,-0.11,0.09,0.01
2024-12-25 19:25:40,867,881,894,891,843,-5.51,-7.55,1.42,-0.01,0.08,-0.05
2024-12-25 19:25:40,858,878,893,887,842,-5.84,-7.76,1.64,0.04,-0.01,-0.01
2024-12-25 19:25:40,863,881,893,890,842,-5.68,-7.73,1.80,-0.01,0.02,-0.05
2024-12-25 19:25:40,882,880,894,889,844,-5.62,-7.82,1.81,0.00,0.04,-0.05
2024-12-25 19:25:41,858,878,893,890,846,-5.43,-7.85,1.84,-0.04,0.02,-0.01
2024-12-25 19:25:41,865,879,892,887,842,-5.49,-7.85,1.89,0.01,0.02,-0.03
2024-12-25 19:25:41,871,882,891,888,843,-5.74,-7.83,2.02,-0.06,0.03,-0.01
2024-12-25 19:25:41,858,879,892,889,843,-5.47,-7.92,2.03,-0.03,0.03,-0.02
2024-12-25 19:25:41,861,881,894,889,842,-5.50,-7.84,1.97,0.07,0.02,0.01
2024-12-25 19:25:42,869,879,893,890,842,-5.64,-7.77,1.98,-0.07,0.00,-0.01
2024-12-25 19:25:42,855,880,890,889,842,-5.47,-7.82,2.01,-0.02,0.03,-0.01
2024-12-25 19:25:42,864,880,890,887,840,-5.50,-7.82,2.04,-0.05,0.01,-0.05
2024-12-25 19:25:42,880,880,892,891,845,-5.48,-7.85,1.94,-0.03,0.02,-0.01
2024-12-25 19:25:42,857,880,892,890,842,-5.54,-7.84,2.20,-0.01,-0.03,-0.02
2024-12-25 19:25:42,870,880,893,890,844,-5.47,-7.90,2.21,-0.03,0.06,0.01
2024-12-25 19:25:43,866,880,893,888,840,-5.44,-7.79,2.08,-0.04,0.04,-0.02
2024-12-25 19:25:43,865,880,894,890,841,-5.51,-7.91,2.16,-0.02,0.03,-0.03
2024-12-25 19:25:43,878,879,895,891,842,-5.40,-7.85,2.09,-0.05,0.02,-0.01
2024-12-25 19:25:43,856,879,893,888,842,-5.45,-7.79,2.12,-0.04,-0.01,-0.02
2024-12-25 19:25:43,866,879,893,887,843,-5.55,-7.88,2.20,-0.02,0.01,0.00
2024-12-25 19:25:44,870,880,891,887,844,-5.40,-7.87,2.17,-0.03,0.03,-0.00
2024-12-25 19:25:44,844,881,891,889,842,-5.44,-7.82,2.08,-0.04,0.02,-0.03
2024-12-25 19:25:44,869,879,893,889,842,-5.42,-7.93,2.13,-0.06,0.03,-0.03
2024-12-25 19:25:44,857,879,893,889,842,-5.43,-7.88,2.14,-0.04,0.03,-0.01
2024-12-25 19:25:44,865,879,892,888,841,-5.56,-7.76,2.25,-0.06,0.03,-0.00
2024-12-25 19:25:45,879,879,890,888,842,-5.40,-7.79,2.15,-0.04,0.09,-0.06
2024-12-25 19:25:45,856,881,891,889,842,-5.49,-7.94,2.04,-0.06,0.15,-0.07
2024-12-25 19:25:45,867,877,892,889,843,-5.37,-7.92,1.75,-0.03,0.16,-0.01
2024-12-25 19:25:45,864,879,894,889,842,-5.33,-8.01,1.61,-0.08,0.13,-0.03
2024-12-25 19:25:45,862,880,891,888,844,-5.38,-8.04,1.47,-0.06,0.08,0.00
2024-12-25 19:25:45,868,879,891,889,842,-5.39,-7.89,1.44,-0.06,0.04,0.02
2024-12-25 19:25:46,866,880,892,888,841,-5.40,-7.90,1.38,-0.09,0.05,-0.03
2024-12-25 19:25:46,858,878,891,887,843,-5.44,-8.08,1.52,-0.07,0.06,-0.08
2024-12-25 19:25:46,869,879,891,887,841,-5.63,-8.05,1.09,-0.01,0.07,-0.05
2024-12-25 19:25:46,858,880,892,888,842,-5.37,-8.01,1.05,-0.14,0.14,-0.01
2024-12-25 19:25:46,864,878,892,888,843,-5.10,-8.14,0.97,0.05,0.04,-0.02
2024-12-25 19:25:47,876,879,891,889,840,-5.21,-8.06,0.87,-0.06,0.01,-0.00
2024-12-25 19:25:47,859,879,891,888,842,-5.49,-8.01,1.40,-0.11,-0.07,-0.04
2024-12-25 19:25:47,867,879,893,889,841,-5.26,-8.25,1.59,0.02,-0.03,0.08
2024-12-25 19:25:47,867,879,891,889,843,-5.54,-7.81,1.26,-0.05,-0.03,0.03
2024-12-25 19:25:47,861,877,891,891,840,-5.63,-7.87,1.40,-0.03,0.02,-0.02
2024-12-25 19:25:48,868,879,890,889,841,-5.38,-7.90,1.26,-0.00,0.05,-0.02
2024-12-25 19:25:48,855,877,891,887,841,-5.39,-7.98,1.30,-0.03,0.04,-0.03
2024-12-25 19:25:48,865,878,892,889,840,-5.45,-8.10,1.41,-0.04,0.04,-0.02
2024-12-25 19:25:48,871,878,892,889,842,-5.59,-7.99,1.57,-0.05,0.06,-0.00
2024-12-25 19:25:48,843,878,892,887,841,-5.76,-7.99,1.40,-0.01,0.23,0.03
2024-12-25 19:25:48,862,881,892,887,841,-5.06,-8.09,0.87,-0.09,0.10,-0.05
2024-12-25 19:25:49,867,878,892,890,842,-5.70,-8.62,0.99,-0.29,-0.05,0.02
2024-12-25 19:25:49,860,878,893,887,841,-5.59,-7.65,0.63,-0.00,0.19,0.13
2024-12-25 19:25:49,867,879,891,888,843,-5.18,-7.07,-0.03,0.08,0.09,0.05
2024-12-25 19:25:49,870,876,889,887,844,-5.36,-7.51,0.71,0.06,0.06,-0.21
2024-12-25 19:25:49,856,879,892,885,841,-5.67,-8.43,0.06,0.12,-0.10,-0.22
2024-12-25 19:25:50,864,879,889,888,843,-4.28,-8.12,1.36,-0.00,0.00,-0.35
2024-12-25 19:25:50,867,878,892,889,840,-5.70,-8.16,1.27,0.07,-0.00,-0.06
2024-12-25 19:25:50,859,876,892,886,841,-4.51,-8.39,0.93,0.02,0.11,-0.01
2024-12-25 19:25:50,865,879,891,888,840,-4.92,-8.09,1.20,-0.07,0.02,0.01
2024-12-25 19:25:50,864,876,891,889,842,-5.34,-8.84,1.01,-0.03,0.05,-0.06
2024-12-25 19:25:51,858,877,891,886,841,-4.52,-8.15,0.84,-0.22,0.29,0.17
2024-12-25 19:25:51,865,878,892,888,842,-5.15,-8.16,0.49,-0.16,-0.05,0.02
2024-12-25 19:25:51,866,879,891,889,841,-5.07,-8.45,0.11,0.10,-0.12,0.21
2024-12-25 19:25:51,847,877,891,887,842,-5.63,-7.58,0.46,0.02,-0.30,0.06
2024-12-25 19:25:51,864,877,890,887,840,-5.77,-7.84,2.16,0.02,-0.30,0.06
2024-12-25 19:25:51,878,878,892,890,841,-6.43,-7.22,2.15,-0.09,-0.17,0.07
2024-12-25 19:25:52,855,877,891,886,842,-5.95,-7.50,1.90,0.03,0.13,-0.12
2024-12-25 19:25:52,861,879,891,888,842,-5.62,-7.84,1.78,0.04,0.08,-0.20
2024-12-25 19:25:52,878,879,891,890,840,-5.66,-7.83,2.00,0.01,0.11,-0.09
2024-12-25 19:25:52,854,877,891,888,841,-5.42,-7.86,1.99,0.00,0.09,-0.04
2024-12-25 19:25:52,861,877,894,886,843,-5.40,-7.89,2.01,-0.02,0.03,-0.05
2024-12-25 19:25:53,875,878,891,888,840,-5.39,-7.86,2.00,-0.02,0.08,-0.05
2024-12-25 19:25:53,854,877,893,888,840,-5.37,-7.98,1.91,-0.01,0.06,-0.05
2024-12-25 19:25:53,862,879,892,887,841,-5.39,-8.00,2.01,-0.02,0.09,-0.04
2024-12-25 19:25:53,867,878,892,886,841,-5.33,-7.99,1.86,-0.02,0.03,-0.05
2024-12-25 19:25:53,859,878,889,885,839,-5.26,-8.05,1.84,-0.03,0.04,-0.03
2024-12-25 19:25:54,868,877,891,887,841,-5.26,-8.08,1.91,-0.05,0.00,-0.00
2024-12-25 19:25:54,853,878,891,886,841,-5.27,-7.99,2.01,-0.05,0.03,-0.03
2024-12-25 19:25:54,863,878,892,887,841,-5.21,-8.04,1.90,-0.02,0.03,-0.03
2024-12-25 19:25:54,867,878,889,886,840,-5.22,-8.13,2.01,-0.01,-0.01,-0.01
2024-12-25 19:25:54,862,878,889,889,843,-5.13,-8.09,1.97,0.05,0.02,-0.00
2024-12-25 19:25:54,869,877,890,888,841,-5.26,-8.08,2.02,-0.03,0.00,-0.01
2024-12-25 19:25:55,853,877,889,888,841,-5.08,-8.06,2.12,-0.03,0.02,-0.02
2024-12-25 19:25:55,861,876,892,888,840,-5.23,-8.12,2.21,-0.05,0.01,0.00
2024-12-25 19:25:55,868,879,890,888,841,-5.27,-8.04,2.27,-0.00,0.01,0.00
2024-12-25 19:25:55,861,877,893,887,841,-5.13,-8.00,2.12,-0.05,0.04,-0.01
2024-12-25 19:25:55,863,879,890,886,840,-5.12,-8.04,2.26,-0.03,0.02,-0.03
2024-12-25 19:25:56,877,876,890,886,840,-5.15,-8.13,2.19,-0.04,0.05,-0.02
2024-12-25 19:25:56,854,877,890,889,841,-5.13,-8.04,2.11,-0.05,0.02,-0.02
2024-12-25 19:25:56,865,878,891,887,841,-5.09,-8.14,2.07,-0.07,0.03,-0.02
2024-12-25 19:25:56,862,877,889,886,840,-5.11,-8.07,2.00,-0.03,0.02,-0.03
2024-12-25 19:25:56,858,878,890,889,842,-5.06,-8.13,2.10,-0.04,0.03,-0.03
2024-12-25 19:25:57,876,875,887,888,842,-5.04,-8.06,2.08,-0.06,0.02,-0.01
2024-12-25 19:25:57,856,878,892,887,840,-5.04,-8.42,1.90,-0.36,0.03,-0.11
2024-12-25 19:25:57,861,878,891,888,840,-4.86,-8.26,1.49,0.06,0.01,0.04
2024-12-25 19:25:57,867,879,890,888,842,-5.15,-8.20,1.67,-0.15,-0.02,-0.02
2024-12-25 19:25:57,852,876,890,888,842,-5.03,-8.29,1.66,-0.19,-0.03,-0.05
2024-12-25 19:25:57,868,878,890,890,842,-4.81,-8.45,1.41,-0.25,-0.05,-0.10
2024-12-25 19:25:58,853,877,891,885,842,-4.20,-8.76,1.01,-0.50,-0.23,-0.20
2024-12-25 19:25:58,866,879,892,889,841,-4.80,-8.56,0.48,-0.50,-0.20,-0.16
2024-12-25 19:25:58,855,877,890,886,840,-4.26,-8.47,0.43,-0.11,-0.16,-0.12
2024-12-25 19:25:58,870,878,890,890,842,-4.62,-8.77,0.32,-0.04,0.00,-0.02
2024-12-25 19:25:58,855,877,889,887,842,-4.20,-8.68,0.39,0.02,0.01,0.02
2024-12-25 19:25:59,856,877,891,886,840,-4.22,-8.77,0.57,0.02,0.07,-0.01
2024-12-25 19:25:59,862,878,890,887,841,-4.16,-8.83,0.62,0.00,0.05,-0.03
2024-12-25 19:25:59,873,878,891,890,840,-4.13,-8.81,0.73,-0.02,0.02,-0.10
2024-12-25 19:25:59,844,877,890,890,840,-4.07,-9.03,0.49,0.02,0.07,-0.03
2024-12-25 19:25:59,864,877,890,887,841,-3.85,-8.88,0.62,-0.01,0.05,-0.03
2024-12-25 19:26:00,865,878,890,887,842,-3.92,-8.99,0.68,-0.01,0.01,-0.02
2024-12-25 19:26:00,860,878,888,889,841,-3.92,-9.02,0.66,-0.05,0.05,0.03
2024-12-25 19:26:00,863,878,890,887,844,-3.79,-8.84,0.69,-0.03,0.04,-0.01
2024-12-25 19:26:00,863,877,890,886,842,-4.03,-8.94,0.82,-0.01,0.01,-0.02
2024-12-25 19:26:00,860,876,893,885,841,-3.87,-8.90,0.76,-0.02,0.03,-0.03
2024-12-25 19:26:00,879,878,890,889,842,-4.00,-8.98,0.89,-0.03,0.01,-0.03
2024-12-25 19:26:01,852,878,891,887,842,-3.88,-8.94,0.93,-0.01,0.04,0.00
2024-12-25 19:26:01,860,878,891,888,841,-3.87,-8.96,0.91,-0.04,0.01,-0.02
2024-12-25 19:26:01,872,878,890,888,841,-3.84,-8.98,0.91,-0.04,0.03,-0.01
2024-12-25 19:26:01,843,879,890,887,841,-3.84,-9.02,0.86,-0.03,0.02,-0.01
2024-12-25 19:26:01,865,876,891,888,841,-3.84,-8.93,0.94,-0.02,0.02,-0.02
2024-12-25 19:26:02,858,879,892,886,840,-3.80,-8.98,0.85,-0.05,0.04,-0.01
2024-12-25 19:26:02,862,879,891,887,842,-3.76,-8.96,0.85,-0.04,0.01,-0.02
2024-12-25 19:26:02,877,878,889,887,842,-3.78,-8.94,0.92,-0.03,0.04,-0.01
2024-12-25 19:26:02,850,878,890,887,840,-3.77,-9.00,0.87,-0.04,0.03,-0.03
2024-12-25 19:26:02,864,877,892,887,841,-3.76,-8.98,0.87,-0.05,0.03,-0.02
2024-12-25 19:26:03,860,877,892,888,842,-3.79,-9.01,0.86,-0.05,0.02,-0.02
2024-12-25 19:26:03,862,876,890,886,840,-3.75,-8.99,0.87,-0.03,0.02,-0.01
2024-12-25 19:26:03,874,879,892,886,840,-3.82,-9.02,0.94,-0.03,0.02,-0.02
2024-12-25 19:26:03,854,878,891,888,840,-3.85,-9.00,0.88,-0.05,0.02,-0.01
2024-12-25 19:26:03,865,878,892,887,841,-3.75,-8.92,0.83,-0.05,0.03,-0.01
2024-12-25 19:26:03,864,879,891,888,843,-3.75,-9.02,0.86,-0.02,0.04,-0.02
2024-12-25 19:26:04,862,878,890,884,842,-3.91,-8.87,0.88,0.01,0.04,-0.03
2024-12-25 19:26:04,867,878,890,886,841,-3.71,-9.04,1.02,-0.01,0.04,-0.03
2024-12-25 19:26:04,853,877,889,887,841,-3.80,-9.01,1.09,-0.04,-0.00,-0.00
2024-12-25 19:26:04,864,875,892,888,841,-3.77,-8.94,1.00,-0.02,0.03,-0.02
2024-12-25 19:26:04,862,877,890,885,840,-3.83,-9.06,1.27,0.02,0.01,-0.03
2024-12-25 19:26:05,846,878,891,886,840,-3.66,-9.11,1.11,-0.07,0.10,-0.05
2024-12-25 19:26:05,864,876,891,886,842,-3.54,-9.12,0.96,-0.07,0.04,-0.01
2024-12-25 19:26:05,857,878,891,886,841,-3.45,-9.23,0.75,-0.20,0.11,-0.14
2024-12-25 19:26:05,858,877,891,888,841,-3.32,-9.06,0.18,0.05,-0.15,0.05
2024-12-25 19:26:05,869,878,891,888,840,-3.90,-9.18,1.13,-0.16,-0.09,-0.08
2024-12-25 19:26:06,854,877,891,886,840,-3.31,-8.76,0.59,-0.11,0.08,-0.08
2024-12-25 19:26:06,862,876,890,887,842,-3.45,-9.28,1.15,0.03,-0.15,-0.03
2024-12-25 19:26:06,862,876,889,887,842,-3.57,-9.01,1.28,-0.05,-0.07,-0.06
2024-12-25 19:26:06,860,878,891,887,840,-3.62,-9.21,1.26,-0.05,0.15,-0.03
2024-12-25 19:26:06,870,878,889,884,840,-3.51,-8.95,0.74,-0.01,0.08,0.11
2024-12-25 19:26:06,852,878,888,889,841,-3.64,-9.00,1.16,0.00,-0.03,-0.07
2024-12-25 19:26:07,862,877,890,886,840,-3.76,-9.23,1.32,-0.04,0.03,-0.05
2024-12-25 19:26:07,861,878,891,887,841,-3.27,-9.17,1.08,-0.03,0.06,-0.04
2024-12-25 19:26:07,858,877,893,889,840,-3.44,-9.15,1.20,-0.07,0.03,-0.01
2024-12-25 19:26:07,870,880,887,885,841,-3.34,-9.24,1.16,-0.03,0.05,0.02
2024-12-25 19:26:07,856,880,891,886,840,-3.51,-9.06,1.10,-0.01,0.02,-0.04
2024-12-25 19:26:08,862,880,892,885,840,-3.35,-9.20,1.17,-0.07,0.04,-0.02
2024-12-25 19:26:08,873,875,891,886,840,-3.51,-9.14,1.15,-0.04,0.03,-0.01
2024-12-25 19:26:08,852,878,893,889,839,-3.40,-9.19,1.20,-0.04,0.03,0.00
2024-12-25 19:26:08,865,876,889,889,841,-3.39,-9.14,1.14,-0.01,0.02,0.00
2024-12-25 19:26:08,878,875,890,887,840,-3.41,-9.12,1.15,-0.03,0.02,0.00
2024-12-25 19:26:09,851,878,890,886,840,-3.47,-9.16,1.18,-0.05,0.03,-0.00
2024-12-25 19:26:09,859,877,889,887,839,-3.46,-9.11,1.13,-0.05,0.03,0.00
2024-12-25 19:26:09,866,879,887,887,843,-3.39,-9.16,1.06,-0.04,0.03,-0.01
2024-12-25 19:26:09,854,878,891,888,841,-3.43,-9.08,1.03,-0.05,0.02,-0.02
2024-12-25 19:26:09,861,879,890,886,841,-3.48,-9.13,1.12,-0.03,0.02,-0.02
2024-12-25 19:26:09,863,876,890,887,839,-3.45,-9.12,1.08,-0.05,0.02,-0.03
2024-12-25 19:26:10,860,876,889,884,842,-3.48,-9.14,1.19,-0.05,0.04,-0.02
2024-12-25 19:26:10,866,877,890,887,840,-3.48,-9.12,1.11,-0.03,0.01,-0.02
2024-12-25 19:26:10,852,877,890,887,841,-3.48,-9.16,1.15,-0.04,0.03,-0.01
2024-12-25 19:26:10,861,877,889,886,840,-3.45,-9.14,1.09,-0.03,0.07,-0.00
2024-12-25 19:26:10,870,877,891,886,839,-3.40,-9.21,1.11,-0.04,0.03,-0.01
2024-12-25 19:26:11,841,878,890,889,841,-3.53,-9.17,1.16,-0.04,0.06,-0.03
2024-12-25 19:26:11,867,877,890,886,841,-3.34,-9.19,0.94,-0.04,0.04,-0.03
2024-12-25 19:26:11,856,877,891,887,840,-3.30,-9.12,0.99,-0.03,0.01,-0.02
2024-12-25 19:26:11,859,877,891,886,842,-3.35,-9.27,1.10,-0.04,0.01,-0.01
2024-12-25 19:26:11,877,878,890,885,841,-3.36,-9.10,1.07,-0.05,0.03,-0.00
2024-12-25 19:26:12,852,878,889,885,840,-3.33,-9.19,1.04,-0.05,0.03,-0.02
2024-12-25 19:26:12,865,876,890,886,841,-3.44,-9.11,1.07,-0.05,0.03,-0.01
2024-12-25 19:26:12,863,874,891,886,840,-3.40,-9.15,0.98,-0.04,0.01,-0.02
2024-12-25 19:26:12,862,876,891,887,841,-3.34,-9.14,1.04,-0.05,0.02,-0.02
2024-12-25 19:26:12,880,875,892,886,841,-3.40,-9.13,1.09,-0.04,0.02,-0.02
2024-12-25 19:26:12,853,877,889,888,839,-3.40,-9.18,1.00,-0.06,0.03,-0.03
2024-12-25 19:26:13,864,880,892,886,842,-3.39,-9.13,1.01,-0.03,0.00,-0.04
2024-12-25 19:26:13,861,876,890,885,841,-3.34,-9.16,1.12,-0.03,0.02,-0.02
2024-12-25 19:26:13,862,880,890,886,841,-3.32,-9.14,1.02,-0.04,0.04,-0.03
2024-12-25 19:26:13,876,877,889,887,841,-3.40,-9.22,1.14,-0.03,0.02,-0.02
2024-12-25 19:26:13,854,875,891,888,841,-3.39,-9.22,1.14,-0.03,0.01,-0.01
2024-12-25 19:26:14,861,877,891,885,840,-3.57,-9.31,1.19,-0.04,0.05,0.01
2024-12-25 19:26:14,877,876,888,886,842,-3.30,-9.21,1.20,-0.02,0.06,-0.01
2024-12-25 19:26:14,854,877,889,886,842,-3.25,-9.18,1.11,-0.02,0.02,-0.01
2024-12-25 19:26:14,865,877,891,886,840,-3.51,-9.23,1.36,-0.02,0.05,-0.01
2024-12-25 19:26:14,865,878,889,885,841,-3.32,-9.11,0.98,-0.04,0.06,0.00
2024-12-25 19:26:15,848,877,889,888,841,-3.34,-9.20,1.19,-0.04,0.02,-0.01
2024-12-25 19:26:15,864,876,890,883,842,-3.34,-9.17,1.18,-0.02,0.04,-0.01
2024-12-25 19:26:15,852,877,890,887,840,-3.42,-9.22,1.11,-0.09,0.05,-0.03
2024-12-25 19:26:15,860,877,889,886,839,-3.48,-9.20,0.85,-0.07,0.08,0.01
2024-12-25 19:26:15,866,879,889,886,841,-3.34,-9.18,0.87,-0.05,0.04,-0.06
2024-12-25 19:26:15,853,876,891,889,841,-3.24,-9.23,0.78,-0.00,0.04,-0.03
2024-12-25 19:26:16,865,877,891,887,840,-3.36,-9.16,0.94,-0.05,-0.02,-0.02
2024-12-25 19:26:16,858,876,891,886,840,-3.29,-9.30,0.98,-0.02,0.03,-0.01
2024-12-25 19:26:16,857,878,891,889,843,-3.21,-9.15,1.04,-0.05,0.02,-0.00
2024-12-25 19:26:16,877,877,891,886,840,-3.25,-9.21,0.97,-0.03,0.01,-0.01
2024-12-25 19:26:16,852,877,890,885,841,-3.25,-9.11,1.04,-0.05,0.00,0.00
2024-12-25 19:26:17,857,876,891,887,840,-3.35,-9.18,1.06,-0.03,0.02,-0.02
2024-12-25 19:26:17,869,877,890,885,840,-3.29,-9.18,1.07,-0.04,0.03,-0.03
2024-12-25 19:26:17,841,875,891,886,841,-3.21,-9.17,1.12,-0.03,0.02,-0.01
2024-12-25 19:26:17,864,877,889,885,841,-3.34,-9.18,1.02,-0.03,0.02,-0.02
2024-12-25 19:26:17,856,877,892,884,840,-3.36,-9.26,1.17,-0.04,0.02,-0.03
2024-12-25 19:26:18,859,877,890,887,840,-3.33,-9.17,1.04,-0.04,0.03,-0.01
2024-12-25 19:26:18,873,875,891,886,842,-3.37,-9.19,1.14,-0.05,0.04,-0.03
2024-12-25 19:26:18,852,876,888,887,839,-3.29,-9.24,1.10,-0.03,0.04,-0.01
2024-12-25 19:26:18,862,878,891,885,842,-3.29,-9.20,1.14,-0.03,0.02,-0.00
2024-12-25 19:26:18,862,876,890,886,839,-3.23,-9.17,1.14,-0.03,0.00,-0.02
2024-12-25 19:26:18,858,877,889,887,840,-3.30,-9.33,1.20,-0.03,0.03,-0.00
2024-12-25 19:26:19,875,875,890,890,841,-3.22,-9.17,1.03,-0.03,0.02,-0.00
2024-12-25 19:26:19,855,878,888,887,841,-3.32,-9.20,1.23,-0.05,-0.00,0.00
2024-12-25 19:26:19,859,879,889,886,841,-3.24,-9.17,1.12,-0.06,0.03,-0.02
2024-12-25 19:26:19,867,877,890,887,840,-3.36,-9.21,1.21,-0.05,0.02,-0.01
2024-12-25 19:26:19,858,877,892,889,839,-3.31,-9.19,1.12,-0.04,0.01,-0.01
2024-12-25 19:26:20,870,877,891,886,840,-3.37,-9.16,1.26,-0.01,-0.00,-0.02
2024-12-25 19:26:20,845,876,890,885,840,-3.30,-9.23,1.22,-0.01,0.04,-0.01
2024-12-25 19:26:20,865,877,889,887,840,-3.25,-9.17,1.16,-0.03,0.02,-0.02
2024-12-25 19:26:20,860,877,889,886,840,-3.30,-9.33,1.19,-0.03,0.02,-0.01
2024-12-25 19:26:20,858,877,889,885,842,-3.29,-9.21,1.21,-0.06,0.03,-0.01
2024-12-25 19:26:21,879,876,892,887,840,-3.27,-9.19,1.06,-0.02,0.05,-0.03
2024-12-25 19:26:21,850,876,892,886,840,-3.19,-9.27,1.25,-0.04,0.03,-0.02
2024-12-25 19:26:21,864,878,889,887,842,-3.21,-9.20,1.22,-0.05,0.02,-0.03
2024-12-25 19:26:21,859,878,891,886,838,-3.30,-9.23,1.24,-0.04,0.04,-0.02
2024-12-25 19:26:21,861,876,889,885,839,-3.18,-9.24,1.11,-0.02,0.01,-0.00
2024-12-25 19:26:21,878,877,889,886,840,-3.28,-9.24,1.29,-0.06,0.01,0.00
2024-12-25 19:26:22,854,878,887,886,840,-3.26,-9.25,1.20,-0.03,0.04,0.00
2024-12-25 19:26:22,858,878,885,889,838,-3.23,-9.19,1.09,-0.04,0.03,0.01
2024-12-25 19:26:22,863,876,889,888,840,-3.30,-9.25,1.25,-0.04,0.00,-0.01
2024-12-25 19:26:22,858,877,889,887,840,-3.31,-9.15,1.06,-0.04,0.04,-0.00
2024-12-25 19:26:22,859,877,888,886,841,-3.21,-9.21,1.11,-0.02,0.05,-0.03
2024-12-25 19:26:23,877,876,889,887,841,-3.28,-9.30,1.09,-0.01,0.01,-0.02
2024-12-25 19:26:23,852,875,891,886,842,-3.32,-9.17,1.13,-0.06,0.04,-0.01
2024-12-25 19:26:23,861,876,891,890,840,-3.31,-9.18,1.15,-0.05,0.04,-0.03
2024-12-25 19:26:23,860,877,891,886,841,-3.25,-9.25,1.09,-0.04,0.02,-0.02
2024-12-25 19:26:23,859,876,888,889,842,-3.24,-9.25,1.22,-0.04,0.03,-0.01
2024-12-25 19:26:24,875,878,890,885,841,-3.17,-9.24,1.15,-0.03,0.02,-0.02
2024-12-25 19:26:24,852,877,888,885,840,-3.22,-9.15,1.11,-0.04,0.03,-0.01
2024-12-25 19:26:24,863,876,890,887,842,-3.25,-9.24,1.13,-0.05,0.02,-0.02
2024-12-25 19:26:24,866,875,891,883,842,-3.24,-9.24,1.17,-0.05,0.03,-0.02
2024-12-25 19:26:24,856,877,891,886,839,-3.27,-9.25,1.12,-0.03,0.00,-0.01
2024-12-25 19:26:24,866,876,888,885,839,-3.34,-9.21,1.18,-0.08,0.03,-0.01
2024-12-25 19:26:25,853,876,889,885,839,-3.30,-9.23,1.16,-0.03,0.06,-0.02
2024-12-25 19:26:25,858,876,889,886,840,-3.64,-9.10,1.17,0.07,0.15,0.13
2024-12-25 19:26:25,864,876,892,886,840,-3.39,-9.14,1.32,-0.02,0.26,0.02
2024-12-25 19:26:25,864,876,889,886,839,-3.64,-9.09,0.74,-0.05,0.30,-0.02
2024-12-25 19:26:25,859,878,888,886,839,-3.32,-9.13,1.08,0.07,0.11,-0.04
2024-12-25 19:26:26,865,878,886,886,839,-3.62,-9.16,0.91,-0.03,-0.03,-0.03
2024-12-25 19:26:26,854,876,887,885,839,-3.59,-9.06,0.85,-0.04,0.02,0.01
2024-12-25 19:26:26,860,876,890,885,840,-3.29,-9.13,0.97,-0.03,0.02,-0.08
2024-12-25 19:26:26,877,875,887,889,840,-3.37,-9.17,1.08,-0.02,-0.01,-0.05
2024-12-25 19:26:26,855,876,890,885,841,-3.36,-9.19,1.08,-0.04,-0.02,-0.05
2024-12-25 19:26:27,877,875,892,886,840,-3.27,-9.20,1.19,-0.04,0.01,-0.03
2024-12-25 19:26:27,851,875,889,886,840,-3.35,-9.17,1.10,-0.04,0.00,-0.02
2024-12-25 19:26:27,863,877,888,884,841,-3.30,-9.18,1.19,-0.05,0.01,-0.00
2024-12-25 19:26:27,862,878,889,887,840,-3.35,-9.21,1.23,-0.05,0.02,0.00
2024-12-25 19:26:27,855,879,891,886,841,-3.56,-9.21,0.96,-0.06,0.15,-0.01
2024-12-25 19:26:27,866,876,889,886,841,-3.34,-9.25,0.98,-0.05,-0.01,0.00
2024-12-25 19:26:28,852,876,891,884,841,-3.26,-9.10,1.09,-0.05,-0.00,-0.01
2024-12-25 19:26:28,862,875,889,886,840,-3.25,-9.19,1.09,-0.05,0.02,-0.01
2024-12-25 19:26:28,865,876,888,886,838,-3.34,-9.18,1.11,-0.03,0.02,-0.02
2024-12-25 19:26:28,859,876,890,888,840,-3.31,-9.20,1.12,-0.04,0.02,-0.03
2024-12-25 19:26:28,867,875,892,885,841,-3.39,-9.21,1.16,-0.05,0.05,-0.01
2024-12-25 19:26:29,852,876,890,884,839,-3.25,-9.20,1.09,-0.03,0.05,-0.01
2024-12-25 19:26:29,862,878,888,885,840,-3.30,-9.23,1.12,-0.05,0.01,-0.02
2024-12-25 19:26:29,861,875,892,887,840,-3.44,-9.19,1.09,-0.01,0.08,-0.01
